STUDYID,DOMAIN,USUBJID,LBSEQ,LBREFID,LBTESTCD,LBTEST,LBCAT,LBORRES,LBORRESU,LBORNRLO,LBORNRHI,LBSTRESC,LBSTRESN,LBSTRESU,LBSTNRLO,LBSTNRHI,LBNRIND,LBSTAT,LBREASND,LBBLFL,VISITNUM,VISIT,LBDTC,LBDY,LBSTDTC,LBSTDY
ABC,LB,ABC-01-049,1,S9930154,ALB,Albumin,CHEMISTRY,4.4,g/dL,3.5,5.0,4.4,4.4,g/dL,3.5,5,NORMAL,,,,0,SCREENING,2006-10-26T10:11:00,-12,2006-10-25,-13
ABC,LB,ABC-01-049,2,S7311403,ALB,Albumin,CHEMISTRY,4.5,g/dL,3.5,5.0,4.5,4.5,g/dL,3.5,5,NORMAL,,,Y,1,DAY 1,2006-11-07T12:27:00,1,2006-11-07,1
ABC,LB,ABC-01-049,3,S9494204,ALB,Albumin,CHEMISTRY,4.7,g/dL,3.5,5.0,4.7,4.7,g/dL,3.5,5,NORMAL,,,,2,WEEK 2,2006-11-28T13:11:00,22,2006-11-21,15
ABC,LB,ABC-01-049,4,S3954716,ALB,Albumin,CHEMISTRY,4.6,g/dL,3.5,5.0,4.6,4.6,g/dL,3.5,5,NORMAL,,,,6,WEEK 6,2006-12-28T13:56:00,52,2006-12-28,52
ABC,LB,ABC-01-049,5,S6648937,ALB,Albumin,CHEMISTRY,4.7,g/dL,3.5,5.0,4.7,4.7,g/dL,3.5,5,NORMAL,,,,12,WEEK 12,2007-02-20T10:22:00,106,2007-02-09,95
ABC,LB,ABC-01-049,6,S9930154,ALP,Alkaline Phosphatase,CHEMISTRY,78,U/L,45,115,78,78,U/L,45,115,NORMAL,,,,0,SCREENING,2006-10-26T10:11:00,-12,2006-10-25,-13
ABC,LB,ABC-01-049,7,S7311403,ALP,Alkaline Phosphatase,CHEMISTRY,68,U/L,45,115,68,68,U/L,45,115,NORMAL,,,Y,1,DAY 1,2006-11-07T12:27:00,1,2006-11-07,1
ABC,LB,ABC-01-049,8,S9494204,ALP,Alkaline Phosphatase,CHEMISTRY,68,U/L,45,115,68,68,U/L,45,115,NORMAL,,,,2,WEEK 2,2006-11-28T13:11:00,22,2006-11-21,15
ABC,LB,ABC-01-049,9,S3954716,ALP,Alkaline Phosphatase,CHEMISTRY,68,U/L,45,115,68,68,U/L,45,115,NORMAL,,,,6,WEEK 6,2006-12-28T13:56:00,52,2006-12-28,52
ABC,LB,ABC-01-049,10,S6648937,ALP,Alkaline Phosphatase,CHEMISTRY,70,U/L,45,115,70,70,U/L,45,115,NORMAL,,,,12,WEEK 12,2007-02-20T10:22:00,106,2007-02-09,95
ABC,LB,ABC-01-049,11,S9930154,ALT,Alanine Aminotransferase,CHEMISTRY,33,U/L,10,45,33,33,U/L,10,45,NORMAL,,,,0,SCREENING,2006-10-26T10:11:00,-12,2006-10-25,-13
ABC,LB,ABC-01-049,12,S7311403,ALT,Alanine Aminotransferase,CHEMISTRY,35,U/L,10,45,35,35,U/L,10,45,NORMAL,,,Y,1,DAY 1,2006-11-07T12:27:00,1,2006-11-07,1
ABC,LB,ABC-01-049,13,S9494204,ALT,Alanine Aminotransferase,CHEMISTRY,34,U/L,10,45,34,34,U/L,10,45,NORMAL,,,,2,WEEK 2,2006-11-28T13:11:00,22,2006-11-21,15
ABC,LB,ABC-01-049,14,S3954716,ALT,Alanine Aminotransferase,CHEMISTRY,40,U/L,10,45,40,40,U/L,10,45,NORMAL,,,,6,WEEK 6,2006-12-28T13:56:00,52,2006-12-28,52
ABC,LB,ABC-01-049,15,S6648937,ALT,Alanine Aminotransferase,CHEMISTRY,39,U/L,10,45,39,39,U/L,10,45,NORMAL,,,,12,WEEK 12,2007-02-20T10:22:00,106,2007-02-09,95
ABC,LB,ABC-01-049,16,S9930154,AST,Aspartate Aminotransferase,CHEMISTRY,22,U/L,12,31,22,22,U/L,12,31,NORMAL,,,,0,SCREENING,2006-10-26T10:11:00,-12,2006-10-25,-13
ABC,LB,ABC-01-049,17,S7311403,AST,Aspartate Aminotransferase,CHEMISTRY,21,U/L,12,31,21,21,U/L,12,31,NORMAL,,,Y,1,DAY 1,2006-11-07T12:27:00,1,2006-11-07,1
ABC,LB,ABC-01-049,18,S9494204,AST,Aspartate Aminotransferase,CHEMISTRY,23,U/L,12,31,23,23,U/L,12,31,NORMAL,,,,2,WEEK 2,2006-11-28T13:11:00,22,2006-11-21,15
ABC,LB,ABC-01-049,19,S3954716,AST,Aspartate Aminotransferase,CHEMISTRY,27,U/L,12,31,27,27,U/L,12,31,NORMAL,,,,6,WEEK 6,2006-12-28T13:56:00,52,2006-12-28,52
ABC,LB,ABC-01-049,20,S6648937,AST,Aspartate Aminotransferase,CHEMISTRY,22,U/L,12,31,22,22,U/L,12,31,NORMAL,,,,12,WEEK 12,2007-02-20T10:22:00,106,2007-02-09,95
ABC,LB,ABC-01-049,21,S9930154,BILI,Bilirubin,CHEMISTRY,0.4,mg/dL,0.1,1.0,0.4,0.4,mg/dL,0.1,1,NORMAL,,,,0,SCREENING,2006-10-26T10:11:00,-12,2006-10-25,-13
ABC,LB,ABC-01-049,22,S7311403,BILI,Bilirubin,CHEMISTRY,0.6,mg/dL,0.1,1.0,0.6,0.6,mg/dL,0.1,1,NORMAL,,,Y,1,DAY 1,2006-11-07T12:27:00,1,2006-11-07,1
ABC,LB,ABC-01-049,23,S9494204,BILI,Bilirubin,CHEMISTRY,0.4,mg/dL,0.1,1.0,0.4,0.4,mg/dL,0.1,1,NORMAL,,,,2,WEEK 2,2006-11-28T13:11:00,22,2006-11-21,15
ABC,LB,ABC-01-049,24,S3954716,BILI,Bilirubin,CHEMISTRY,0.4,mg/dL,0.1,1.0,0.4,0.4,mg/dL,0.1,1,NORMAL,,,,6,WEEK 6,2006-12-28T13:56:00,52,2006-12-28,52
ABC,LB,ABC-01-049,25,S6648937,BILI,Bilirubin,CHEMISTRY,0.5,mg/dL,0.1,1.0,0.5,0.5,mg/dL,0.1,1,NORMAL,,,,12,WEEK 12,2007-02-20T10:22:00,106,2007-02-09,95
ABC,LB,ABC-01-049,26,S9930154,BUN,Blood Urea Nitrogen,CHEMISTRY,13,mg/dL,8,24,13,13,mg/dL,8,24,NORMAL,,,,0,SCREENING,2006-10-26T10:11:00,-12,2006-10-25,-13
ABC,LB,ABC-01-049,27,S7311403,BUN,Blood Urea Nitrogen,CHEMISTRY,13,mg/dL,8,24,13,13,mg/dL,8,24,NORMAL,,,Y,1,DAY 1,2006-11-07T12:27:00,1,2006-11-07,1
ABC,LB,ABC-01-049,28,S9494204,BUN,Blood Urea Nitrogen,CHEMISTRY,9,mg/dL,8,24,9,9,mg/dL,8,24,NORMAL,,,,2,WEEK 2,2006-11-28T13:11:00,22,2006-11-21,15
ABC,LB,ABC-01-049,29,S3954716,BUN,Blood Urea Nitrogen,CHEMISTRY,13,mg/dL,8,24,13,13,mg/dL,8,24,NORMAL,,,,6,WEEK 6,2006-12-28T13:56:00,52,2006-12-28,52
ABC,LB,ABC-01-049,30,S6648937,BUN,Blood Urea Nitrogen,CHEMISTRY,11,mg/dL,8,24,11,11,mg/dL,8,24,NORMAL,,,,12,WEEK 12,2007-02-20T10:22:00,106,2007-02-09,95
ABC,LB,ABC-01-049,31,S9930154,CA,Calcium,CHEMISTRY,9.6,mg/dL,8.9,10.1,9.6,9.6,mg/dL,8.9,10.1,NORMAL,,,,0,SCREENING,2006-10-26T10:11:00,-12,2006-10-25,-13
ABC,LB,ABC-01-049,32,S7311403,CA,Calcium,CHEMISTRY,8.8,mg/dL,8.9,10.1,8.8,8.8,mg/dL,8.9,10.1,LOW,,,Y,1,DAY 1,2006-11-07T12:27:00,1,2006-11-07,1
ABC,LB,ABC-01-049,33,S9494204,CA,Calcium,CHEMISTRY,9.6,mg/dL,8.9,10.1,9.6,9.6,mg/dL,8.9,10.1,NORMAL,,,,2,WEEK 2,2006-11-28T13:11:00,22,2006-11-21,15
ABC,LB,ABC-01-049,34,S3954716,CA,Calcium,CHEMISTRY,9.2,mg/dL,8.9,10.1,9.2,9.2,mg/dL,8.9,10.1,NORMAL,,,,6,WEEK 6,2006-12-28T13:56:00,52,2006-12-28,52
ABC,LB,ABC-01-049,35,S6648937,CA,Calcium,CHEMISTRY,9.3,mg/dL,8.9,10.1,9.3,9.3,mg/dL,8.9,10.1,NORMAL,,,,12,WEEK 12,2007-02-20T10:22:00,106,2007-02-09,95
ABC,LB,ABC-01-049,36,S9930154,CHOL,Cholesterol,CHEMISTRY,168,mg/dL,0,239,168,168,mg/dL,0,239,NORMAL,,,,0,SCREENING,2006-10-26T10:11:00,-12,2006-10-25,-13
ABC,LB,ABC-01-049,37,S7311403,CHOL,Cholesterol,CHEMISTRY,170,mg/dL,0,239,170,170,mg/dL,0,239,NORMAL,,,Y,1,DAY 1,2006-11-07T12:27:00,1,2006-11-07,1
ABC,LB,ABC-01-049,38,S9494204,CHOL,Cholesterol,CHEMISTRY,186,mg/dL,0,239,186,186,mg/dL,0,239,NORMAL,,,,2,WEEK 2,2006-11-28T13:11:00,22,2006-11-21,15
ABC,LB,ABC-01-049,39,S3954716,CHOL,Cholesterol,CHEMISTRY,209,mg/dL,0,239,209,209,mg/dL,0,239,NORMAL,,,,6,WEEK 6,2006-12-28T13:56:00,52,2006-12-28,52
ABC,LB,ABC-01-049,40,S6648937,CHOL,Cholesterol,CHEMISTRY,185,mg/dL,0,239,185,185,mg/dL,0,239,NORMAL,,,,12,WEEK 12,2007-02-20T10:22:00,106,2007-02-09,95
ABC,LB,ABC-01-049,41,S9930154,CL,Chloride,CHEMISTRY,102,mmol/L,100,108,102,102,mmol/L,100,108,NORMAL,,,,0,SCREENING,2006-10-26T10:11:00,-12,2006-10-25,-13
ABC,LB,ABC-01-049,42,S7311403,CL,Chloride,CHEMISTRY,99,mmol/L,100,108,99,99,mmol/L,100,108,LOW,,,Y,1,DAY 1,2006-11-07T12:27:00,1,2006-11-07,1
ABC,LB,ABC-01-049,43,S9494204,CL,Chloride,CHEMISTRY,101,mmol/L,100,108,101,101,mmol/L,100,108,NORMAL,,,,2,WEEK 2,2006-11-28T13:11:00,22,2006-11-21,15
ABC,LB,ABC-01-049,44,S3954716,CL,Chloride,CHEMISTRY,101,mmol/L,100,108,101,101,mmol/L,100,108,NORMAL,,,,6,WEEK 6,2006-12-28T13:56:00,52,2006-12-28,52
ABC,LB,ABC-01-049,45,S6648937,CL,Chloride,CHEMISTRY,103,mmol/L,100,108,103,103,mmol/L,100,108,NORMAL,,,,12,WEEK 12,2007-02-20T10:22:00,106,2007-02-09,95
ABC,LB,ABC-01-049,46,S9930154,CREAT,Creatinine,CHEMISTRY,1.0,mg/dL,0.9,1.4,1.0,1,mg/dL,0.9,1.4,NORMAL,,,,0,SCREENING,2006-10-26T10:11:00,-12,2006-10-25,-13
ABC,LB,ABC-01-049,47,S7311403,CREAT,Creatinine,CHEMISTRY,1.1,mg/dL,0.9,1.4,1.1,1.1,mg/dL,0.9,1.4,NORMAL,,,Y,1,DAY 1,2006-11-07T12:27:00,1,2006-11-07,1
ABC,LB,ABC-01-049,48,S9494204,CREAT,Creatinine,CHEMISTRY,1.0,mg/dL,0.9,1.4,1.0,1,mg/dL,0.9,1.4,NORMAL,,,,2,WEEK 2,2006-11-28T13:11:00,22,2006-11-21,15
ABC,LB,ABC-01-049,49,S3954716,CREAT,Creatinine,CHEMISTRY,1.0,mg/dL,0.9,1.4,1.0,1,mg/dL,0.9,1.4,NORMAL,,,,6,WEEK 6,2006-12-28T13:56:00,52,2006-12-28,52
ABC,LB,ABC-01-049,50,S6648937,CREAT,Creatinine,CHEMISTRY,1.0,mg/dL,0.9,1.4,1.0,1,mg/dL,0.9,1.4,NORMAL,,,,12,WEEK 12,2007-02-20T10:22:00,106,2007-02-09,95
ABC,LB,ABC-01-049,51,S9930154,GLUC,Glucose,CHEMISTRY,132,mg/dL,70,100,132,132,mg/dL,70,100,HIGH,,,,0,SCREENING,2006-10-26T10:11:00,-12,2006-10-25,-13
ABC,LB,ABC-01-049,52,S7311403,GLUC,Glucose,CHEMISTRY,142,mg/dL,70,100,142,142,mg/dL,70,100,HIGH,,,Y,1,DAY 1,2006-11-07T12:27:00,1,2006-11-07,1
ABC,LB,ABC-01-049,53,S9494204,GLUC,Glucose,CHEMISTRY,100,mg/dL,70,100,100,100,mg/dL,70,100,NORMAL,,,,2,WEEK 2,2006-11-28T13:11:00,22,2006-11-21,15
ABC,LB,ABC-01-049,54,S3954716,GLUC,Glucose,CHEMISTRY,225,mg/dL,70,100,225,225,mg/dL,70,100,HIGH,,,,6,WEEK 6,2006-12-28T13:56:00,52,2006-12-28,52
ABC,LB,ABC-01-049,55,S6648937,GLUC,Glucose,CHEMISTRY,119,mg/dL,70,100,119,119,mg/dL,70,100,HIGH,,,,12,WEEK 12,2007-02-20T10:22:00,106,2007-02-09,95
ABC,LB,ABC-01-049,56,S9930154,K,Potassium,CHEMISTRY,5.4,mmol/L,3.6,4.8,5.4,5.4,mmol/L,3.6,4.8,HIGH,,,,0,SCREENING,2006-10-26T10:11:00,-12,2006-10-25,-13
ABC,LB,ABC-01-049,57,S7311403,K,Potassium,CHEMISTRY,3.8,mmol/L,3.6,4.8,3.8,3.8,mmol/L,3.6,4.8,NORMAL,,,Y,1,DAY 1,2006-11-07T12:27:00,1,2006-11-07,1
ABC,LB,ABC-01-049,58,S9494204,K,Potassium,CHEMISTRY,4.3,mmol/L,3.6,4.8,4.3,4.3,mmol/L,3.6,4.8,NORMAL,,,,2,WEEK 2,2006-11-28T13:11:00,22,2006-11-21,15
ABC,LB,ABC-01-049,59,S3954716,K,Potassium,CHEMISTRY,4.0,mmol/L,3.6,4.8,4.0,4,mmol/L,3.6,4.8,NORMAL,,,,6,WEEK 6,2006-12-28T13:56:00,52,2006-12-28,52
ABC,LB,ABC-01-049,60,S6648937,K,Potassium,CHEMISTRY,4.4,mmol/L,3.6,4.8,4.4,4.4,mmol/L,3.6,4.8,NORMAL,,,,12,WEEK 12,2007-02-20T10:22:00,106,2007-02-09,95
ABC,LB,ABC-01-049,61,S9930154,LIPASE,Triacylglycerol Lipase,CHEMISTRY,32,U/L,10,73,32,32,U/L,10,73,NORMAL,,,,0,SCREENING,2006-10-26T10:11:00,-12,2006-10-25,-13
ABC,LB,ABC-01-049,62,S7311403,LIPASE,Triacylglycerol Lipase,CHEMISTRY,44,U/L,10,73,44,44,U/L,10,73,NORMAL,,,Y,1,DAY 1,2006-11-07T12:27:00,1,2006-11-07,1
ABC,LB,ABC-01-049,63,S9494204,LIPASE,Triacylglycerol Lipase,CHEMISTRY,62,U/L,10,73,62,62,U/L,10,73,NORMAL,,,,2,WEEK 2,2006-11-28T13:11:00,22,2006-11-21,15
ABC,LB,ABC-01-049,64,S3954716,LIPASE,Triacylglycerol Lipase,CHEMISTRY,41,U/L,10,73,41,41,U/L,10,73,NORMAL,,,,6,WEEK 6,2006-12-28T13:56:00,52,2006-12-28,52
ABC,LB,ABC-01-049,65,S6648937,LIPASE,Triacylglycerol Lipase,CHEMISTRY,25,U/L,10,73,25,25,U/L,10,73,NORMAL,,,,12,WEEK 12,2007-02-20T10:22:00,106,2007-02-09,95
ABC,LB,ABC-01-049,66,S9930154,PHOS,Phosphate,CHEMISTRY,4.1,mg/dL,2.5,4.5,4.1,4.1,mg/dL,2.5,4.5,NORMAL,,,,0,SCREENING,2006-10-26T10:11:00,-12,2006-10-25,-13
ABC,LB,ABC-01-049,67,S7311403,PHOS,Phosphate,CHEMISTRY,3.7,mg/dL,2.5,4.5,3.7,3.7,mg/dL,2.5,4.5,NORMAL,,,Y,1,DAY 1,2006-11-07T12:27:00,1,2006-11-07,1
ABC,LB,ABC-01-049,68,S9494204,PHOS,Phosphate,CHEMISTRY,4.5,mg/dL,2.5,4.5,4.5,4.5,mg/dL,2.5,4.5,NORMAL,,,,2,WEEK 2,2006-11-28T13:11:00,22,2006-11-21,15
ABC,LB,ABC-01-049,69,S3954716,PHOS,Phosphate,CHEMISTRY,3.8,mg/dL,2.5,4.5,3.8,3.8,mg/dL,2.5,4.5,NORMAL,,,,6,WEEK 6,2006-12-28T13:56:00,52,2006-12-28,52
ABC,LB,ABC-01-049,70,S6648937,PHOS,Phosphate,CHEMISTRY,4.0,mg/dL,2.5,4.5,4.0,4,mg/dL,2.5,4.5,NORMAL,,,,12,WEEK 12,2007-02-20T10:22:00,106,2007-02-09,95
ABC,LB,ABC-01-049,71,S9930154,PROT,Protein,CHEMISTRY,6.7,g/dL,6.3,7.9,6.7,6.7,g/dL,6.3,7.9,NORMAL,,,,0,SCREENING,2006-10-26T10:11:00,-12,2006-10-25,-13
ABC,LB,ABC-01-049,72,S7311403,PROT,Protein,CHEMISTRY,6.8,g/dL,6.3,7.9,6.8,6.8,g/dL,6.3,7.9,NORMAL,,,Y,1,DAY 1,2006-11-07T12:27:00,1,2006-11-07,1
ABC,LB,ABC-01-049,73,S9494204,PROT,Protein,CHEMISTRY,7.2,g/dL,6.3,7.9,7.2,7.2,g/dL,6.3,7.9,NORMAL,,,,2,WEEK 2,2006-11-28T13:11:00,22,2006-11-21,15
ABC,LB,ABC-01-049,74,S3954716,PROT,Protein,CHEMISTRY,7.0,g/dL,6.3,7.9,7.0,7,g/dL,6.3,7.9,NORMAL,,,,6,WEEK 6,2006-12-28T13:56:00,52,2006-12-28,52
ABC,LB,ABC-01-049,75,S6648937,PROT,Protein,CHEMISTRY,7.1,g/dL,6.3,7.9,7.1,7.1,g/dL,6.3,7.9,NORMAL,,,,12,WEEK 12,2007-02-20T10:22:00,106,2007-02-09,95
ABC,LB,ABC-01-049,76,S9930154,SODIUM,Sodium,CHEMISTRY,139,mmol/L,135,145,139,139,mmol/L,135,145,NORMAL,,,,0,SCREENING,2006-10-26T10:11:00,-12,2006-10-25,-13
ABC,LB,ABC-01-049,77,S7311403,SODIUM,Sodium,CHEMISTRY,136,mmol/L,135,145,136,136,mmol/L,135,145,NORMAL,,,Y,1,DAY 1,2006-11-07T12:27:00,1,2006-11-07,1
ABC,LB,ABC-01-049,78,S9494204,SODIUM,Sodium,CHEMISTRY,139,mmol/L,135,145,139,139,mmol/L,135,145,NORMAL,,,,2,WEEK 2,2006-11-28T13:11:00,22,2006-11-21,15
ABC,LB,ABC-01-049,79,S3954716,SODIUM,Sodium,CHEMISTRY,141,mmol/L,135,145,141,141,mmol/L,135,145,NORMAL,,,,6,WEEK 6,2006-12-28T13:56:00,52,2006-12-28,52
ABC,LB,ABC-01-049,80,S6648937,SODIUM,Sodium,CHEMISTRY,140,mmol/L,135,145,140,140,mmol/L,135,145,NORMAL,,,,12,WEEK 12,2007-02-20T10:22:00,106,2007-02-09,95
ABC,LB,ABC-01-049,81,S9930154,TRIG,Triglycerides,CHEMISTRY,365,mg/dL,0,199,365,365,mg/dL,0,199,HIGH,,,,0,SCREENING,2006-10-26T10:11:00,-12,2006-10-25,-13
ABC,LB,ABC-01-049,82,S7311403,TRIG,Triglycerides,CHEMISTRY,322,mg/dL,0,199,322,322,mg/dL,0,199,HIGH,,,Y,1,DAY 1,2006-11-07T12:27:00,1,2006-11-07,1
ABC,LB,ABC-01-049,83,S9494204,TRIG,Triglycerides,CHEMISTRY,345,mg/dL,0,199,345,345,mg/dL,0,199,HIGH,,,,2,WEEK 2,2006-11-28T13:11:00,22,2006-11-21,15
ABC,LB,ABC-01-049,84,S3954716,TRIG,Triglycerides,CHEMISTRY,432,mg/dL,0,199,432,432,mg/dL,0,199,HIGH,,,,6,WEEK 6,2006-12-28T13:56:00,52,2006-12-28,52
ABC,LB,ABC-01-049,85,S6648937,TRIG,Triglycerides,CHEMISTRY,360,mg/dL,0,199,360,360,mg/dL,0,199,HIGH,,,,12,WEEK 12,2007-02-20T10:22:00,106,2007-02-09,95
ABC,LB,ABC-01-049,86,S9930154,URATE,Uric Acid,CHEMISTRY,5.7,mg/dL,4.3,8.0,5.7,5.7,mg/dL,4.3,8,NORMAL,,,,0,SCREENING,2006-10-26T10:11:00,-12,2006-10-25,-13
ABC,LB,ABC-01-049,87,S7311403,URATE,Uric Acid,CHEMISTRY,5.9,mg/dL,4.3,8.0,5.9,5.9,mg/dL,4.3,8,NORMAL,,,Y,1,DAY 1,2006-11-07T12:27:00,1,2006-11-07,1
ABC,LB,ABC-01-049,88,S9494204,URATE,Uric Acid,CHEMISTRY,6.1,mg/dL,4.3,8.0,6.1,6.1,mg/dL,4.3,8,NORMAL,,,,2,WEEK 2,2006-11-28T13:11:00,22,2006-11-21,15
ABC,LB,ABC-01-049,89,S3954716,URATE,Uric Acid,CHEMISTRY,5.5,mg/dL,4.3,8.0,5.5,5.5,mg/dL,4.3,8,NORMAL,,,,6,WEEK 6,2006-12-28T13:56:00,52,2006-12-28,52
ABC,LB,ABC-01-049,90,S6648937,URATE,Uric Acid,CHEMISTRY,6.5,mg/dL,4.3,8.0,6.5,6.5,mg/dL,4.3,8,NORMAL,,,,12,WEEK 12,2007-02-20T10:22:00,106,2007-02-09,95
ABC,LB,ABC-01-049,91,S4940821,HCG,Choriogonadotropin Beta,ENDOCRINE,,,,,,,,,,,NOT DONE,Pregnancy test not required per study site.,,0,SCREENING,2006-10-26T10:11:00,-12,2006-10-25,-13
ABC,LB,ABC-01-049,92,S4087452,OSTEOC,Osteocalcin,ENDOCRINE,8.7,ng/mL,,,8.7,8.7,ug/L,,,,,,Y,1,DAY 1,2006-11-07T12:27:00,1,2006-11-07,1
ABC,LB,ABC-01-049,93,S3113070,OSTEOC,Osteocalcin,ENDOCRINE,9.7,ng/mL,,,9.7,9.7,ug/L,,,,,,,6,WEEK 6,2006-12-28T13:56:00,52,2006-12-28,52
ABC,LB,ABC-01-049,94,S8036531,OSTEOC,Osteocalcin,ENDOCRINE,13.5,ng/mL,,,13.5,13.5,ug/L,,,,,,,12,WEEK 12,2007-02-20T10:22:00,106,2007-02-09,95
ABC,LB,ABC-01-049,95,S8951475,PTHI,"Parathyroid Hormone, Intact",ENDOCRINE,15,pg/mL,11,67,1.6,1.6,pmol/L,1.2,7,NORMAL,,,,1,DAY 1,2006-11-07T12:27:00,1,2006-11-07,1
ABC,LB,ABC-01-049,96,S8951475,PTHI,"Parathyroid Hormone, Intact",ENDOCRINE,1.6,pmol/L,1.1,7.1,1.6,1.6,pmol/L,1.1,7.1,NORMAL,,,Y,1,DAY 1,2006-11-07T12:27:00,1,2006-11-07,1
ABC,LB,ABC-01-049,97,S3793904,PTHI,"Parathyroid Hormone, Intact",ENDOCRINE,23,pg/mL,11,67,2.4,2.4,pmol/L,1.2,7,NORMAL,,,,6,WEEK 6,2006-12-28T13:56:00,52,2006-12-28,52
ABC,LB,ABC-01-049,98,S3793904,PTHI,"Parathyroid Hormone, Intact",ENDOCRINE,2.4,pmol/L,1.1,7.1,2.4,2.4,pmol/L,1.1,7.1,NORMAL,,,,6,WEEK 6,2006-12-28T13:56:00,52,2006-12-28,52
ABC,LB,ABC-01-049,99,S3173271,PTHI,"Parathyroid Hormone, Intact",ENDOCRINE,19,pg/mL,11,67,2.0,2,pmol/L,1.2,7,NORMAL,,,,12,WEEK 12,2007-02-20T10:22:00,106,2007-02-09,95
ABC,LB,ABC-01-049,100,S3173271,PTHI,"Parathyroid Hormone, Intact",ENDOCRINE,2.0,pmol/L,1.1,7.1,2.0,2,pmol/L,1.1,7.1,NORMAL,,,,12,WEEK 12,2007-02-20T10:22:00,106,2007-02-09,95
ABC,LB,ABC-01-049,101,S7773602,VITDAT,"1, 25-Dihydroxyvitamin D",ENDOCRINE,33,pg/mL,22,67,3.47,3.47,pmol/L,2.31,7.04,NORMAL,,,Y,1,DAY 1,2006-11-07T12:27:00,1,2006-11-07,1
ABC,LB,ABC-01-049,102,S8234033,VITDAT,"1, 25-Dihydroxyvitamin D",ENDOCRINE,32,pg/mL,22,67,3.36,3.36,pmol/L,2.31,7.04,NORMAL,,,,12,WEEK 12,2007-02-20T10:22:00,106,2007-02-09,95
ABC,LB,ABC-01-049,103,S3483783,VITDIT,25-Hydroxyvitamin D,ENDOCRINE,13,ng/mL,25,80,13.0,13,ug/L,25,80,LOW,,,Y,1,DAY 1,2006-11-07T12:27:00,1,2006-11-07,1
ABC,LB,ABC-01-049,104,S3714603,VITDIT,25-Hydroxyvitamin D,ENDOCRINE,7.4,ng/mL,25,80,7.4,7.4,ug/L,25,80,LOW,,,,6,WEEK 6,2006-12-28T13:56:00,52,2006-12-28,52
ABC,LB,ABC-01-049,105,S6745582,VITDIT,25-Hydroxyvitamin D,ENDOCRINE,8.9,ng/mL,25,80,8.9,8.9,ug/L,25,80,LOW,,,,12,WEEK 12,2007-02-20T10:22:00,106,2007-02-09,95
ABC,LB,ABC-01-049,106,S3483783,VITDIT2,25-Hydroxyvitamin D2,ENDOCRINE,<4.0,ng/mL,,,<4.0,,ug/L,,,,,,Y,1,DAY 1,2006-11-07T12:27:00,1,2006-11-07,1
ABC,LB,ABC-01-049,107,S3714603,VITDIT2,25-Hydroxyvitamin D2,ENDOCRINE,<4.0,ng/mL,,,<4.0,,ug/L,,,,,,,6,WEEK 6,2006-12-28T13:56:00,52,2006-12-28,52
ABC,LB,ABC-01-049,108,S6745582,VITDIT2,25-Hydroxyvitamin D2,ENDOCRINE,<4.0,ng/mL,,,<4.0,,ug/L,,,,,,,12,WEEK 12,2007-02-20T10:22:00,106,2007-02-09,95
ABC,LB,ABC-01-049,109,S3483783,VITDIT3,25-Hydroxyvitamin D3,ENDOCRINE,13,ng/mL,,,13.0,13,ug/L,,,,,,Y,1,DAY 1,2006-11-07T12:27:00,1,2006-11-07,1
ABC,LB,ABC-01-049,110,S3714603,VITDIT3,25-Hydroxyvitamin D3,ENDOCRINE,7.4,ng/mL,,,7.4,7.4,ug/L,,,,,,,6,WEEK 6,2006-12-28T13:56:00,52,2006-12-28,52
ABC,LB,ABC-01-049,111,S6745582,VITDIT3,25-Hydroxyvitamin D3,ENDOCRINE,8.9,ng/mL,,,8.9,8.9,ug/L,,,,,,,12,WEEK 12,2007-02-20T10:22:00,106,2007-02-09,95
ABC,LB,ABC-01-049,112,S2837649,BASO,Basophils,HEMATOLOGY,,,,,,,,,,,NOT DONE,Test cancelled. Specimen received hemolyzed. **********,,0,SCREENING,2006-10-26T10:11:00,-12,2006-10-25,-13
ABC,LB,ABC-01-049,113,S2837649,BASO,Basophils,HEMATOLOGY,,,,,,,,,,,NOT DONE,Test cancelled. Specimen received hemolyzed. **********,,0,SCREENING,2006-10-26T10:11:00,-12,2006-10-25,-13
ABC,LB,ABC-01-049,114,S7842386,BASO,Basophils,HEMATOLOGY,0.04,x10(9)/L,0.00,0.30,0.04,0.04,10^9/L,0,0.3,NORMAL,,,Y,1,DAY 1,2006-11-07T12:27:00,1,2006-11-07,1
ABC,LB,ABC-01-049,115,S8552257,BASO,Basophils,HEMATOLOGY,0.01,x10(9)/L,0.00,0.30,0.01,0.01,10^9/L,0,0.3,NORMAL,,,,2,WEEK 2,2006-11-28T13:11:00,22,2006-11-21,15
ABC,LB,ABC-01-049,116,S3665697,BASO,Basophils,HEMATOLOGY,0.06,x10(9)/L,0.00,0.30,0.06,0.06,10^9/L,0,0.3,NORMAL,,,,6,WEEK 6,2006-12-28T13:56:00,52,2006-12-28,52
ABC,LB,ABC-01-049,117,S3071069,BASO,Basophils,HEMATOLOGY,0.03,x10(9)/L,0.00,0.30,0.03,0.03,10^9/L,0,0.3,NORMAL,,,,12,WEEK 12,2007-02-20T10:22:00,106,2007-02-09,95
ABC,LB,ABC-01-049,118,S0489864,BASO,Basophils,HEMATOLOGY,0.03,x10(9)/L,0.00,0.30,0.03,0.03,10^9/L,0,0.3,NORMAL,,,,99,UNSCHEDULED 1,2006-10-31T10:05:00,-7,2006-10-31,-7
ABC,LB,ABC-01-049,119,S7842386,BASOLE,Basophils/Leukocytes,HEMATOLOGY,0.45,%,0,3,0.45,0.45,%,0,3,NORMAL,,,Y,1,DAY 1,2006-11-07T12:27:00,1,2006-11-07,1
ABC,LB,ABC-01-049,120,S8552257,BASOLE,Basophils/Leukocytes,HEMATOLOGY,0.19,%,0,3,0.19,0.19,%,0,3,NORMAL,,,,2,WEEK 2,2006-11-28T13:11:00,22,2006-11-21,15
ABC,LB,ABC-01-049,121,S3665697,BASOLE,Basophils/Leukocytes,HEMATOLOGY,0.63,%,0,3,0.63,0.63,%,0,3,NORMAL,,,,6,WEEK 6,2006-12-28T13:56:00,52,2006-12-28,52
ABC,LB,ABC-01-049,122,S3071069,BASOLE,Basophils/Leukocytes,HEMATOLOGY,0.31,%,0,3,0.31,0.31,%,0,3,NORMAL,,,,12,WEEK 12,2007-02-20T10:22:00,106,2007-02-09,95
ABC,LB,ABC-01-049,123,S0489864,BASOLE,Basophils/Leukocytes,HEMATOLOGY,0.35,%,0,3,0.35,0.35,%,0,3,NORMAL,,,,99,UNSCHEDULED 1,2006-10-31T10:05:00,-7,2006-10-31,-7
ABC,LB,ABC-01-049,124,S2837649,EOS,Eosinophils,HEMATOLOGY,,,,,,,,,,,NOT DONE,Test cancelled. Specimen received hemolyzed. **********,,0,SCREENING,2006-10-26T10:11:00,-12,2006-10-25,-13
ABC,LB,ABC-01-049,125,S2837649,EOS,Eosinophils,HEMATOLOGY,,,,,,,,,,,NOT DONE,Test cancelled. Specimen received hemolyzed. **********,,0,SCREENING,2006-10-26T10:11:00,-12,2006-10-25,-13
ABC,LB,ABC-01-049,126,S7842386,EOS,Eosinophils,HEMATOLOGY,0.19,x10(9)/L,0.05,0.50,0.19,0.19,10^9/L,0.05,0.5,NORMAL,,,Y,1,DAY 1,2006-11-07T12:27:00,1,2006-11-07,1
ABC,LB,ABC-01-049,127,S8552257,EOS,Eosinophils,HEMATOLOGY,0.19,x10(9)/L,0.05,0.50,0.19,0.19,10^9/L,0.05,0.5,NORMAL,,,,2,WEEK 2,2006-11-28T13:11:00,22,2006-11-21,15
ABC,LB,ABC-01-049,128,S3665697,EOS,Eosinophils,HEMATOLOGY,0.21,x10(9)/L,0.05,0.50,0.21,0.21,10^9/L,0.05,0.5,NORMAL,,,,6,WEEK 6,2006-12-28T13:56:00,52,2006-12-28,52
ABC,LB,ABC-01-049,129,S3071069,EOS,Eosinophils,HEMATOLOGY,0.18,x10(9)/L,0.05,0.50,0.18,0.18,10^9/L,0.05,0.5,NORMAL,,,,12,WEEK 12,2007-02-20T10:22:00,106,2007-02-09,95
ABC,LB,ABC-01-049,130,S0489864,EOS,Eosinophils,HEMATOLOGY,0.16,x10(9)/L,0.05,0.50,0.16,0.16,10^9/L,0.05,0.5,NORMAL,,,,99,UNSCHEDULED 1,2006-10-31T10:05:00,-7,2006-10-31,-7
ABC,LB,ABC-01-049,131,S7842386,EOSLE,Eosinophils/Leukocytes,HEMATOLOGY,2.51,%,0,7,2.51,2.51,%,0,7,NORMAL,,,Y,1,DAY 1,2006-11-07T12:27:00,1,2006-11-07,1
ABC,LB,ABC-01-049,132,S8552257,EOSLE,Eosinophils/Leukocytes,HEMATOLOGY,3.76,%,0,7,3.76,3.76,%,0,7,NORMAL,,,,2,WEEK 2,2006-11-28T13:11:00,22,2006-11-21,15
ABC,LB,ABC-01-049,133,S3665697,EOSLE,Eosinophils/Leukocytes,HEMATOLOGY,2.22,%,0,7,2.22,2.22,%,0,7,NORMAL,,,,6,WEEK 6,2006-12-28T13:56:00,52,2006-12-28,52
ABC,LB,ABC-01-049,134,S3071069,EOSLE,Eosinophils/Leukocytes,HEMATOLOGY,1.94,%,0,7,1.94,1.94,%,0,7,NORMAL,,,,12,WEEK 12,2007-02-20T10:22:00,106,2007-02-09,95
ABC,LB,ABC-01-049,135,S0489864,EOSLE,Eosinophils/Leukocytes,HEMATOLOGY,1.89,%,0,7,1.89,1.89,%,0,7,NORMAL,,,,99,UNSCHEDULED 1,2006-10-31T10:05:00,-7,2006-10-31,-7
ABC,LB,ABC-01-049,136,S2837649,HCT,Hematocrit,HEMATOLOGY,,,,,,,,,,,NOT DONE,Test cancelled. Specimen received hemolyzed. **********,,0,SCREENING,2006-10-26T10:11:00,-12,2006-10-25,-13
ABC,LB,ABC-01-049,137,S7842386,HCT,Hematocrit,HEMATOLOGY,42.6,%,38.8,50.0,42.6,42.6,%,38.8,50,NORMAL,,,Y,1,DAY 1,2006-11-07T12:27:00,1,2006-11-07,1
ABC,LB,ABC-01-049,138,S8552257,HCT,Hematocrit,HEMATOLOGY,44.3,%,38.8,50.0,44.3,44.3,%,38.8,50,NORMAL,,,,2,WEEK 2,2006-11-28T13:11:00,22,2006-11-21,15
ABC,LB,ABC-01-049,139,S3665697,HCT,Hematocrit,HEMATOLOGY,45.4,%,38.8,50.0,45.4,45.4,%,38.8,50,NORMAL,,,,6,WEEK 6,2006-12-28T13:56:00,52,2006-12-28,52
ABC,LB,ABC-01-049,140,S3071069,HCT,Hematocrit,HEMATOLOGY,45.3,%,38.8,50.0,45.3,45.3,%,38.8,50,NORMAL,,,,12,WEEK 12,2007-02-20T10:22:00,106,2007-02-09,95
ABC,LB,ABC-01-049,141,S0489864,HCT,Hematocrit,HEMATOLOGY,46.8,%,38.8,50.0,46.8,46.8,%,38.8,50,NORMAL,,,,99,UNSCHEDULED 1,2006-10-31T10:05:00,-7,2006-10-31,-7
ABC,LB,ABC-01-049,142,S2837649,HGB,Hemoglobin,HEMATOLOGY,,,,,,,,,,,NOT DONE,Test cancelled. Specimen received hemolyzed. **********,,0,SCREENING,2006-10-26T10:11:00,-12,2006-10-25,-13
ABC,LB,ABC-01-049,143,S7842386,HGB,Hemoglobin,HEMATOLOGY,15.0,g/dL,13.5,17.5,15.0,15,g/dL,13.5,17.5,NORMAL,,,Y,1,DAY 1,2006-11-07T12:27:00,1,2006-11-07,1
ABC,LB,ABC-01-049,144,S8552257,HGB,Hemoglobin,HEMATOLOGY,15.7,g/dL,13.5,17.5,15.7,15.7,g/dL,13.5,17.5,NORMAL,,,,2,WEEK 2,2006-11-28T13:11:00,22,2006-11-21,15
ABC,LB,ABC-01-049,145,S3665697,HGB,Hemoglobin,HEMATOLOGY,15.6,g/dL,13.5,17.5,15.6,15.6,g/dL,13.5,17.5,NORMAL,,,,6,WEEK 6,2006-12-28T13:56:00,52,2006-12-28,52
ABC,LB,ABC-01-049,146,S3071069,HGB,Hemoglobin,HEMATOLOGY,15.9,g/dL,13.5,17.5,15.9,15.9,g/dL,13.5,17.5,NORMAL,,,,12,WEEK 12,2007-02-20T10:22:00,106,2007-02-09,95
ABC,LB,ABC-01-049,147,S0489864,HGB,Hemoglobin,HEMATOLOGY,16.4,g/dL,13.5,17.5,16.4,16.4,g/dL,13.5,17.5,NORMAL,,,,99,UNSCHEDULED 1,2006-10-31T10:05:00,-7,2006-10-31,-7
ABC,LB,ABC-01-049,148,S2837649,LYM,Lymphocytes,HEMATOLOGY,,,,,,,,,,,NOT DONE,Test cancelled. Specimen received hemolyzed. **********,,0,SCREENING,2006-10-26T10:11:00,-12,2006-10-25,-13
ABC,LB,ABC-01-049,149,S2837649,LYM,Lymphocytes,HEMATOLOGY,,,,,,,,,,,NOT DONE,Test cancelled. Specimen received hemolyzed. **********,,0,SCREENING,2006-10-26T10:11:00,-12,2006-10-25,-13
ABC,LB,ABC-01-049,150,S7842386,LYM,Lymphocytes,HEMATOLOGY,1.91,x10(9)/L,0.90,2.90,1.91,1.91,10^9/L,0.9,2.9,NORMAL,,,Y,1,DAY 1,2006-11-07T12:27:00,1,2006-11-07,1
ABC,LB,ABC-01-049,151,S8552257,LYM,Lymphocytes,HEMATOLOGY,2.59,x10(9)/L,0.90,2.90,2.59,2.59,10^9/L,0.9,2.9,NORMAL,,,,2,WEEK 2,2006-11-28T13:11:00,22,2006-11-21,15
ABC,LB,ABC-01-049,152,S3665697,LYM,Lymphocytes,HEMATOLOGY,2.35,x10(9)/L,0.90,2.90,2.35,2.35,10^9/L,0.9,2.9,NORMAL,,,,6,WEEK 6,2006-12-28T13:56:00,52,2006-12-28,52
ABC,LB,ABC-01-049,153,S3071069,LYM,Lymphocytes,HEMATOLOGY,2.59,x10(9)/L,0.90,2.90,2.59,2.59,10^9/L,0.9,2.9,NORMAL,,,,12,WEEK 12,2007-02-20T10:22:00,106,2007-02-09,95
ABC,LB,ABC-01-049,154,S0489864,LYM,Lymphocytes,HEMATOLOGY,2.36,x10(9)/L,0.90,2.90,2.36,2.36,10^9/L,0.9,2.9,NORMAL,,,,99,UNSCHEDULED 1,2006-10-31T10:05:00,-7,2006-10-31,-7
ABC,LB,ABC-01-049,155,S7842386,LYMLE,Lymphocytes/Leukocytes,HEMATOLOGY,24.64,%,17,42,24.64,24.64,%,17,42,NORMAL,,,Y,1,DAY 1,2006-11-07T12:27:00,1,2006-11-07,1
ABC,LB,ABC-01-049,156,S8552257,LYMLE,Lymphocytes/Leukocytes,HEMATOLOGY,51.77,%,17,42,51.77,51.77,%,17,42,HIGH,,,,2,WEEK 2,2006-11-28T13:11:00,22,2006-11-21,15
ABC,LB,ABC-01-049,157,S3665697,LYMLE,Lymphocytes/Leukocytes,HEMATOLOGY,24.33,%,17,42,24.33,24.33,%,17,42,NORMAL,,,,6,WEEK 6,2006-12-28T13:56:00,52,2006-12-28,52
ABC,LB,ABC-01-049,158,S3071069,LYMLE,Lymphocytes/Leukocytes,HEMATOLOGY,27.94,%,17,42,27.94,27.94,%,17,42,NORMAL,,,,12,WEEK 12,2007-02-20T10:22:00,106,2007-02-09,95
ABC,LB,ABC-01-049,159,S0489864,LYMLE,Lymphocytes/Leukocytes,HEMATOLOGY,27.52,%,17,42,27.52,27.52,%,17,42,NORMAL,,,,99,UNSCHEDULED 1,2006-10-31T10:05:00,-7,2006-10-31,-7
ABC,LB,ABC-01-049,160,S2837649,MCH,Ery. Mean Corpuscular Hemoglobin,HEMATOLOGY,,,,,,,,,,,NOT DONE,Test cancelled. Specimen received hemolyzed. **********,,0,SCREENING,2006-10-26T10:11:00,-12,2006-10-25,-13
ABC,LB,ABC-01-049,161,S7842386,MCH,Ery. Mean Corpuscular Hemoglobin,HEMATOLOGY,33.2,pg,27.4,33.0,33.2,33.2,pg,27.4,33,HIGH,,,Y,1,DAY 1,2006-11-07T12:27:00,1,2006-11-07,1
ABC,LB,ABC-01-049,162,S8552257,MCH,Ery. Mean Corpuscular Hemoglobin,HEMATOLOGY,33.4,pg,27.4,33.0,33.4,33.4,pg,27.4,33,HIGH,,,,2,WEEK 2,2006-11-28T13:11:00,22,2006-11-21,15
ABC,LB,ABC-01-049,163,S3665697,MCH,Ery. Mean Corpuscular Hemoglobin,HEMATOLOGY,32.6,pg,27.4,33.0,32.6,32.6,pg,27.4,33,NORMAL,,,,6,WEEK 6,2006-12-28T13:56:00,52,2006-12-28,52
ABC,LB,ABC-01-049,164,S3071069,MCH,Ery. Mean Corpuscular Hemoglobin,HEMATOLOGY,33.5,pg,27.4,33.0,33.5,33.5,pg,27.4,33,HIGH,,,,12,WEEK 12,2007-02-20T10:22:00,106,2007-02-09,95
ABC,LB,ABC-01-049,165,S0489864,MCH,Ery. Mean Corpuscular Hemoglobin,HEMATOLOGY,33.6,pg,27.4,33.0,33.6,33.6,pg,27.4,33,HIGH,,,,99,UNSCHEDULED 1,2006-10-31T10:05:00,-7,2006-10-31,-7
ABC,LB,ABC-01-049,166,S2837649,MCHC,Ery. Mean Corpuscular HGB Concentration,HEMATOLOGY,,,,,,,,,,,NOT DONE,Test cancelled. Specimen received hemolyzed. **********,,0,SCREENING,2006-10-26T10:11:00,-12,2006-10-25,-13
ABC,LB,ABC-01-049,167,S7842386,MCHC,Ery. Mean Corpuscular HGB Concentration,HEMATOLOGY,35.3,g/dL,33.3,35.2,35.3,35.3,g/dL,33.3,35.2,HIGH,,,Y,1,DAY 1,2006-11-07T12:27:00,1,2006-11-07,1
ABC,LB,ABC-01-049,168,S8552257,MCHC,Ery. Mean Corpuscular HGB Concentration,HEMATOLOGY,35.5,g/dL,33.3,35.2,35.5,35.5,g/dL,33.3,35.2,HIGH,,,,2,WEEK 2,2006-11-28T13:11:00,22,2006-11-21,15
ABC,LB,ABC-01-049,169,S3665697,MCHC,Ery. Mean Corpuscular HGB Concentration,HEMATOLOGY,34.4,g/dL,33.3,35.2,34.4,34.4,g/dL,33.3,35.2,NORMAL,,,,6,WEEK 6,2006-12-28T13:56:00,52,2006-12-28,52
ABC,LB,ABC-01-049,170,S3071069,MCHC,Ery. Mean Corpuscular HGB Concentration,HEMATOLOGY,35.1,g/dL,33.3,35.2,35.1,35.1,g/dL,33.3,35.2,NORMAL,,,,12,WEEK 12,2007-02-20T10:22:00,106,2007-02-09,95
ABC,LB,ABC-01-049,171,S0489864,MCHC,Ery. Mean Corpuscular HGB Concentration,HEMATOLOGY,35.1,g/dL,33.3,35.2,35.1,35.1,g/dL,33.3,35.2,NORMAL,,,,99,UNSCHEDULED 1,2006-10-31T10:05:00,-7,2006-10-31,-7
ABC,LB,ABC-01-049,172,S2837649,MCV,Ery. Mean Corpuscular Volume,HEMATOLOGY,,,,,,,,,,,NOT DONE,Test cancelled. Specimen received hemolyzed. **********,,0,SCREENING,2006-10-26T10:11:00,-12,2006-10-25,-13
ABC,LB,ABC-01-049,173,S7842386,MCV,Ery. Mean Corpuscular Volume,HEMATOLOGY,94.1,fL,81.2,95.1,94.1,94.1,fL,81.2,95.1,NORMAL,,,Y,1,DAY 1,2006-11-07T12:27:00,1,2006-11-07,1
ABC,LB,ABC-01-049,174,S8552257,MCV,Ery. Mean Corpuscular Volume,HEMATOLOGY,94.2,fL,81.2,95.1,94.2,94.2,fL,81.2,95.1,NORMAL,,,,2,WEEK 2,2006-11-28T13:11:00,22,2006-11-21,15
ABC,LB,ABC-01-049,175,S3665697,MCV,Ery. Mean Corpuscular Volume,HEMATOLOGY,94.8,fL,81.2,95.1,94.8,94.8,fL,81.2,95.1,NORMAL,,,,6,WEEK 6,2006-12-28T13:56:00,52,2006-12-28,52
ABC,LB,ABC-01-049,176,S3071069,MCV,Ery. Mean Corpuscular Volume,HEMATOLOGY,95.5,fL,81.2,95.1,95.5,95.5,fL,81.2,95.1,HIGH,,,,12,WEEK 12,2007-02-20T10:22:00,106,2007-02-09,95
ABC,LB,ABC-01-049,177,S0489864,MCV,Ery. Mean Corpuscular Volume,HEMATOLOGY,95.6,fL,81.2,95.1,95.6,95.6,fL,81.2,95.1,HIGH,,,,99,UNSCHEDULED 1,2006-10-31T10:05:00,-7,2006-10-31,-7
ABC,LB,ABC-01-049,178,S2837649,MONO,Monocytes,HEMATOLOGY,,,,,,,,,,,NOT DONE,Test cancelled. Specimen received hemolyzed. **********,,0,SCREENING,2006-10-26T10:11:00,-12,2006-10-25,-13
ABC,LB,ABC-01-049,179,S2837649,MONO,Monocytes,HEMATOLOGY,,,,,,,,,,,NOT DONE,Test cancelled. Specimen received hemolyzed. **********,,0,SCREENING,2006-10-26T10:11:00,-12,2006-10-25,-13
ABC,LB,ABC-01-049,180,S7842386,MONO,Monocytes,HEMATOLOGY,0.58,x10(9)/L,0.30,0.90,0.58,0.58,10^9/L,0.3,0.9,NORMAL,,,Y,1,DAY 1,2006-11-07T12:27:00,1,2006-11-07,1
ABC,LB,ABC-01-049,181,S8552257,MONO,Monocytes,HEMATOLOGY,0.53,x10(9)/L,0.30,0.90,0.53,0.53,10^9/L,0.3,0.9,NORMAL,,,,2,WEEK 2,2006-11-28T13:11:00,22,2006-11-21,15
ABC,LB,ABC-01-049,182,S3665697,MONO,Monocytes,HEMATOLOGY,0.40,x10(9)/L,0.30,0.90,0.40,0.4,10^9/L,0.3,0.9,NORMAL,,,,6,WEEK 6,2006-12-28T13:56:00,52,2006-12-28,52
ABC,LB,ABC-01-049,183,S3071069,MONO,Monocytes,HEMATOLOGY,0.35,x10(9)/L,0.30,0.90,0.35,0.35,10^9/L,0.3,0.9,NORMAL,,,,12,WEEK 12,2007-02-20T10:22:00,106,2007-02-09,95
ABC,LB,ABC-01-049,184,S0489864,MONO,Monocytes,HEMATOLOGY,0.22,x10(9)/L,0.30,0.90,0.22,0.22,10^9/L,0.3,0.9,LOW,,,,99,UNSCHEDULED 1,2006-10-31T10:05:00,-7,2006-10-31,-7
ABC,LB,ABC-01-049,185,S7842386,MONOLE,Monocytes/Leukocytes,HEMATOLOGY,7.52,%,4,15,7.52,7.52,%,4,15,NORMAL,,,Y,1,DAY 1,2006-11-07T12:27:00,1,2006-11-07,1
ABC,LB,ABC-01-049,186,S8552257,MONOLE,Monocytes/Leukocytes,HEMATOLOGY,10.68,%,4,15,10.68,10.68,%,4,15,NORMAL,,,,2,WEEK 2,2006-11-28T13:11:00,22,2006-11-21,15
ABC,LB,ABC-01-049,187,S3665697,MONOLE,Monocytes/Leukocytes,HEMATOLOGY,4.16,%,4,15,4.16,4.16,%,4,15,NORMAL,,,,6,WEEK 6,2006-12-28T13:56:00,52,2006-12-28,52
ABC,LB,ABC-01-049,188,S3071069,MONOLE,Monocytes/Leukocytes,HEMATOLOGY,3.80,%,4,15,3.80,3.8,%,4,15,LOW,,,,12,WEEK 12,2007-02-20T10:22:00,106,2007-02-09,95
ABC,LB,ABC-01-049,189,S0489864,MONOLE,Monocytes/Leukocytes,HEMATOLOGY,2.61,%,4,15,2.61,2.61,%,4,15,LOW,,,,99,UNSCHEDULED 1,2006-10-31T10:05:00,-7,2006-10-31,-7
ABC,LB,ABC-01-049,190,S2837649,NEUT,Neutrophils,HEMATOLOGY,,,,,,,,,,,NOT DONE,Test cancelled. Specimen received hemolyzed. **********,,0,SCREENING,2006-10-26T10:11:00,-12,2006-10-25,-13
ABC,LB,ABC-01-049,191,S2837649,NEUT,Neutrophils,HEMATOLOGY,,,,,,,,,,,NOT DONE,Test cancelled. Specimen received hemolyzed. **********,,0,SCREENING,2006-10-26T10:11:00,-12,2006-10-25,-13
ABC,LB,ABC-01-049,192,S7842386,NEUT,Neutrophils,HEMATOLOGY,5.02,x10(9)/L,1.70,7.00,5.02,5.02,10^9/L,1.7,7,NORMAL,,,Y,1,DAY 1,2006-11-07T12:27:00,1,2006-11-07,1
ABC,LB,ABC-01-049,193,S8552257,NEUT,Neutrophils,HEMATOLOGY,1.68,x10(9)/L,1.70,7.00,1.68,1.68,10^9/L,1.7,7,LOW,,,,2,WEEK 2,2006-11-28T13:11:00,22,2006-11-21,15
ABC,LB,ABC-01-049,194,S3665697,NEUT,Neutrophils,HEMATOLOGY,6.62,x10(9)/L,1.70,7.00,6.62,6.62,10^9/L,1.7,7,NORMAL,,,,6,WEEK 6,2006-12-28T13:56:00,52,2006-12-28,52
ABC,LB,ABC-01-049,195,S3071069,NEUT,Neutrophils,HEMATOLOGY,6.12,x10(9)/L,1.70,7.00,6.12,6.12,10^9/L,1.7,7,NORMAL,,,,12,WEEK 12,2007-02-20T10:22:00,106,2007-02-09,95
ABC,LB,ABC-01-049,196,S0489864,NEUT,Neutrophils,HEMATOLOGY,5.79,x10(9)/L,1.70,7.00,5.79,5.79,10^9/L,1.7,7,NORMAL,,,,99,UNSCHEDULED 1,2006-10-31T10:05:00,-7,2006-10-31,-7
ABC,LB,ABC-01-049,197,S7842386,NEUTLE,Neutrophils/Leukocytes,HEMATOLOGY,64.88,%,44,71,64.88,64.88,%,44,71,NORMAL,,,Y,1,DAY 1,2006-11-07T12:27:00,1,2006-11-07,1
ABC,LB,ABC-01-049,198,S8552257,NEUTLE,Neutrophils/Leukocytes,HEMATOLOGY,33.60,%,44,71,33.60,33.6,%,44,71,LOW,,,,2,WEEK 2,2006-11-28T13:11:00,22,2006-11-21,15
ABC,LB,ABC-01-049,199,S3665697,NEUTLE,Neutrophils/Leukocytes,HEMATOLOGY,68.66,%,44,71,68.66,68.66,%,44,71,NORMAL,,,,6,WEEK 6,2006-12-28T13:56:00,52,2006-12-28,52
ABC,LB,ABC-01-049,200,S3071069,NEUTLE,Neutrophils/Leukocytes,HEMATOLOGY,66.01,%,44,71,66.01,66.01,%,44,71,NORMAL,,,,12,WEEK 12,2007-02-20T10:22:00,106,2007-02-09,95
ABC,LB,ABC-01-049,201,S0489864,NEUTLE,Neutrophils/Leukocytes,HEMATOLOGY,67.63,%,44,71,67.63,67.63,%,44,71,NORMAL,,,,99,UNSCHEDULED 1,2006-10-31T10:05:00,-7,2006-10-31,-7
ABC,LB,ABC-01-049,202,S2837649,PLAT,Platelets,HEMATOLOGY,,,,,,,,,,,NOT DONE,Test cancelled. Specimen received hemolyzed. **********,,0,SCREENING,2006-10-26T10:11:00,-12,2006-10-25,-13
ABC,LB,ABC-01-049,203,S7842386,PLAT,Platelets,HEMATOLOGY,308,x10(9)/L,150,450,308,308,10^9/L,150,450,NORMAL,,,Y,1,DAY 1,2006-11-07T12:27:00,1,2006-11-07,1
ABC,LB,ABC-01-049,204,S8552257,PLAT,Platelets,HEMATOLOGY,306,x10(9)/L,150,450,306,306,10^9/L,150,450,NORMAL,,,,2,WEEK 2,2006-11-28T13:11:00,22,2006-11-21,15
ABC,LB,ABC-01-049,205,S3665697,PLAT,Platelets,HEMATOLOGY,307,x10(9)/L,150,450,307,307,10^9/L,150,450,NORMAL,,,,6,WEEK 6,2006-12-28T13:56:00,52,2006-12-28,52
ABC,LB,ABC-01-049,206,S3071069,PLAT,Platelets,HEMATOLOGY,295,x10(9)/L,150,450,295,295,10^9/L,150,450,NORMAL,,,,12,WEEK 12,2007-02-20T10:22:00,106,2007-02-09,95
ABC,LB,ABC-01-049,207,S0489864,PLAT,Platelets,HEMATOLOGY,268,x10(9)/L,150,450,268,268,10^9/L,150,450,NORMAL,,,,99,UNSCHEDULED 1,2006-10-31T10:05:00,-7,2006-10-31,-7
ABC,LB,ABC-01-049,208,S2837649,RBC,Erythrocytes,HEMATOLOGY,,,,,,,,,,,NOT DONE,Test cancelled. Specimen received hemolyzed. **********,,0,SCREENING,2006-10-26T10:11:00,-12,2006-10-25,-13
ABC,LB,ABC-01-049,209,S7842386,RBC,Erythrocytes,HEMATOLOGY,4.52,x10(12)/L,4.32,5.72,4.52,4.52,10^12/L,4.32,5.72,NORMAL,,,Y,1,DAY 1,2006-11-07T12:27:00,1,2006-11-07,1
ABC,LB,ABC-01-049,210,S8552257,RBC,Erythrocytes,HEMATOLOGY,4.71,x10(12)/L,4.32,5.72,4.71,4.71,10^12/L,4.32,5.72,NORMAL,,,,2,WEEK 2,2006-11-28T13:11:00,22,2006-11-21,15
ABC,LB,ABC-01-049,211,S3665697,RBC,Erythrocytes,HEMATOLOGY,4.79,x10(12)/L,4.32,5.72,4.79,4.79,10^12/L,4.32,5.72,NORMAL,,,,6,WEEK 6,2006-12-28T13:56:00,52,2006-12-28,52
ABC,LB,ABC-01-049,212,S3071069,RBC,Erythrocytes,HEMATOLOGY,4.74,x10(12)/L,4.32,5.72,4.74,4.74,10^12/L,4.32,5.72,NORMAL,,,,12,WEEK 12,2007-02-20T10:22:00,106,2007-02-09,95
ABC,LB,ABC-01-049,213,S0489864,RBC,Erythrocytes,HEMATOLOGY,4.89,x10(12)/L,4.32,5.72,4.89,4.89,10^12/L,4.32,5.72,NORMAL,,,,99,UNSCHEDULED 1,2006-10-31T10:05:00,-7,2006-10-31,-7
ABC,LB,ABC-01-049,214,S2837649,RDW,Erythrocytes Distribution Width,HEMATOLOGY,,,,,,,,,,,NOT DONE,Test cancelled. Specimen received hemolyzed. **********,,0,SCREENING,2006-10-26T10:11:00,-12,2006-10-25,-13
ABC,LB,ABC-01-049,215,S7842386,RDW,Erythrocytes Distribution Width,HEMATOLOGY,13.1,%,11.8,15.6,13.1,13.1,%,11.8,15.6,NORMAL,,,Y,1,DAY 1,2006-11-07T12:27:00,1,2006-11-07,1
ABC,LB,ABC-01-049,216,S8552257,RDW,Erythrocytes Distribution Width,HEMATOLOGY,12.0,%,11.8,15.6,12.0,12,%,11.8,15.6,NORMAL,,,,2,WEEK 2,2006-11-28T13:11:00,22,2006-11-21,15
ABC,LB,ABC-01-049,217,S3665697,RDW,Erythrocytes Distribution Width,HEMATOLOGY,12.1,%,11.8,15.6,12.1,12.1,%,11.8,15.6,NORMAL,,,,6,WEEK 6,2006-12-28T13:56:00,52,2006-12-28,52
ABC,LB,ABC-01-049,218,S3071069,RDW,Erythrocytes Distribution Width,HEMATOLOGY,11.7,%,11.8,15.6,11.7,11.7,%,11.8,15.6,LOW,,,,12,WEEK 12,2007-02-20T10:22:00,106,2007-02-09,95
ABC,LB,ABC-01-049,219,S0489864,RDW,Erythrocytes Distribution Width,HEMATOLOGY,12.6,%,11.8,15.6,12.6,12.6,%,11.8,15.6,NORMAL,,,,99,UNSCHEDULED 1,2006-10-31T10:05:00,-7,2006-10-31,-7
ABC,LB,ABC-01-049,220,S2837649,WBC,Leukocytes,HEMATOLOGY,,,,,,,,,,,NOT DONE,Test cancelled. Specimen received hemolyzed. **********,,0,SCREENING,2006-10-26T10:11:00,-12,2006-10-25,-13
ABC,LB,ABC-01-049,221,S7842386,WBC,Leukocytes,HEMATOLOGY,7.7,x10(9)/L,3.5,10.5,7.7,7.7,10^9/L,3.5,10.5,NORMAL,,,Y,1,DAY 1,2006-11-07T12:27:00,1,2006-11-07,1
ABC,LB,ABC-01-049,222,S8552257,WBC,Leukocytes,HEMATOLOGY,5.0,x10(9)/L,3.5,10.5,5.0,5,10^9/L,3.5,10.5,NORMAL,,,,2,WEEK 2,2006-11-28T13:11:00,22,2006-11-21,15
ABC,LB,ABC-01-049,223,S3665697,WBC,Leukocytes,HEMATOLOGY,9.6,x10(9)/L,3.5,10.5,9.6,9.6,10^9/L,3.5,10.5,NORMAL,,,,6,WEEK 6,2006-12-28T13:56:00,52,2006-12-28,52
ABC,LB,ABC-01-049,224,S3071069,WBC,Leukocytes,HEMATOLOGY,9.3,x10(9)/L,3.5,10.5,9.3,9.3,10^9/L,3.5,10.5,NORMAL,,,,12,WEEK 12,2007-02-20T10:22:00,106,2007-02-09,95
ABC,LB,ABC-01-049,225,S0489864,WBC,Leukocytes,HEMATOLOGY,8.6,x10(9)/L,3.5,10.5,8.6,8.6,10^9/L,3.5,10.5,NORMAL,,,,99,UNSCHEDULED 1,2006-10-31T10:05:00,-7,2006-10-31,-7
ABC,LB,ABC-01-049,226,S9106303,BILI,Bilirubin,URINALYSIS,NEGATIVE,,,,NEGATIVE,,,,,,,,,0,SCREENING,2006-10-26T10:11:00,-12,2006-10-25,-13
ABC,LB,ABC-01-049,227,S8466341,BILI,Bilirubin,URINALYSIS,NEGATIVE,,,,NEGATIVE,,,,,,,,Y,1,DAY 1,2006-11-07T12:27:00,1,2006-11-07,1
ABC,LB,ABC-01-049,228,S7356687,BILI,Bilirubin,URINALYSIS,NEGATIVE,,,,NEGATIVE,,,,,,,,,6,WEEK 6,2006-12-28T14:00:00,52,2006-12-28,52
ABC,LB,ABC-01-049,229,S5689712,BILI,Bilirubin,URINALYSIS,NEGATIVE,,,,NEGATIVE,,,,,,,,,12,WEEK 12,2007-02-20T11:15:00,106,2007-02-09,95
ABC,LB,ABC-01-049,230,S5024857,CACONC,Calcium Concentration,URINALYSIS,320,mg/L,,,320.000000,320,mg/L,,,,,,,0,SCREENING,2006-10-26T10:11:00,-12,2006-10-25,-13
ABC,LB,ABC-01-049,231,S3729385,CACONC,Calcium Concentration,URINALYSIS,117,mg/L,,,117.000000,117,mg/L,,,,,,Y,1,DAY 1,2006-11-07T12:27:00,1,2006-11-07,1
ABC,LB,ABC-01-049,232,S2283241,CACONC,Calcium Concentration,URINALYSIS,104,mg/L,,,104.000000,104,mg/L,,,,,,,6,WEEK 6,2006-12-28T14:00:00,52,2006-12-28,52
ABC,LB,ABC-01-049,233,S1344772,CACONC,Calcium Concentration,URINALYSIS,47,mg/L,,,47.000000,47,mg/L,,,,,,,12,WEEK 12,2007-02-20T11:15:00,106,2007-02-09,95
ABC,LB,ABC-01-049,234,S5024857,CACREAT,Calcium/Creatinine,URINALYSIS,0.24,,,,0.24,0.24,,,,,,,,0,SCREENING,2006-10-26T10:11:00,-12,2006-10-25,-13
ABC,LB,ABC-01-049,235,S3729385,CACREAT,Calcium/Creatinine,URINALYSIS,0.07,,,,0.07,0.07,,,,,,,Y,1,DAY 1,2006-11-07T12:27:00,1,2006-11-07,1
ABC,LB,ABC-01-049,236,S2283241,CACREAT,Calcium/Creatinine,URINALYSIS,0.09,,,,0.09,0.09,,,,,,,,6,WEEK 6,2006-12-28T14:00:00,52,2006-12-28,52
ABC,LB,ABC-01-049,237,S1344772,CACREAT,Calcium/Creatinine,URINALYSIS,0.03,,,,0.03,0.03,,,,,,,,12,WEEK 12,2007-02-20T11:15:00,106,2007-02-09,95
ABC,LB,ABC-01-049,238,S5024857,CREACONC,Creatinine Concentration,URINALYSIS,136,mg/dL,,,136,136,mg/dL,,,,,,,0,SCREENING,2006-10-26T10:11:00,-12,2006-10-25,-13
ABC,LB,ABC-01-049,239,S3729385,CREACONC,Creatinine Concentration,URINALYSIS,165,mg/dL,,,165,165,mg/dL,,,,,,Y,1,DAY 1,2006-11-07T12:27:00,1,2006-11-07,1
ABC,LB,ABC-01-049,240,S2283241,CREACONC,Creatinine Concentration,URINALYSIS,119,mg/dL,,,119,119,mg/dL,,,,,,,6,WEEK 6,2006-12-28T14:00:00,52,2006-12-28,52
ABC,LB,ABC-01-049,241,S1344772,CREACONC,Creatinine Concentration,URINALYSIS,172,mg/dL,,,172,172,mg/dL,,,,,,,12,WEEK 12,2007-02-20T11:15:00,106,2007-02-09,95
ABC,LB,ABC-01-049,242,S8466341,EPISQCE,Squamous Epithelial Cells,URINALYSIS,1-3,/hpf,,,1-3,,/HPF,,,,,,Y,1,DAY 1,2006-11-07T12:27:00,1,2006-11-07,1
ABC,LB,ABC-01-049,243,S7356687,EPISQCE,Squamous Epithelial Cells,URINALYSIS,1-3,/hpf,,,1-3,,/HPF,,,,,,,6,WEEK 6,2006-12-28T14:00:00,52,2006-12-28,52
ABC,LB,ABC-01-049,244,S9106303,GLUC,Glucose,URINALYSIS,NEGATIVE,g/dL,,,NEGATIVE,,g/dL,,,,,,,0,SCREENING,2006-10-26T10:11:00,-12,2006-10-25,-13
ABC,LB,ABC-01-049,245,S8466341,GLUC,Glucose,URINALYSIS,TRACE,g/dL,,,TRACE,,g/dL,,,,,,Y,1,DAY 1,2006-11-07T12:27:00,1,2006-11-07,1
ABC,LB,ABC-01-049,246,S7356687,GLUC,Glucose,URINALYSIS,0.25,g/dL,,,0.25,0.25,g/dL,,,,,,,6,WEEK 6,2006-12-28T14:00:00,52,2006-12-28,52
ABC,LB,ABC-01-049,247,S5689712,GLUC,Glucose,URINALYSIS,NEGATIVE,g/dL,,,NEGATIVE,,g/dL,,,,,,,12,WEEK 12,2007-02-20T11:15:00,106,2007-02-09,95
ABC,LB,ABC-01-049,248,,HCG,Choriogonadotropin Beta,URINALYSIS,,,,,,,,,,,NOT DONE,Subject is male or female who is post-menopausal or has undergone successful surgical sterilization,,4,WEEK 4,,,2006-12-07,31
ABC,LB,ABC-01-049,249,,HCG,Choriogonadotropin Beta,URINALYSIS,,,,,,,,,,,NOT DONE,Subject is male or female who is post-menopausal or has undergone successful surgical sterilization,,8,WEEK 8,,,2007-01-11,66
ABC,LB,ABC-01-049,250,,HCG,Choriogonadotropin Beta,URINALYSIS,,,,,,,,,,,NOT DONE,Subject is male or female who is post-menopausal or has undergone successful surgical sterilization,,12,WEEK 12,,,2007-02-09,95
ABC,LB,ABC-01-049,251,S9106303,HGB,Hemoglobin,URINALYSIS,NEGATIVE,,,,NEGATIVE,,,,,,,,,0,SCREENING,2006-10-26T10:11:00,-12,2006-10-25,-13
ABC,LB,ABC-01-049,252,S8466341,HGB,Hemoglobin,URINALYSIS,NEGATIVE,,,,NEGATIVE,,,,,,,,Y,1,DAY 1,2006-11-07T12:27:00,1,2006-11-07,1
ABC,LB,ABC-01-049,253,S7356687,HGB,Hemoglobin,URINALYSIS,NEGATIVE,,,,NEGATIVE,,,,,,,,,6,WEEK 6,2006-12-28T14:00:00,52,2006-12-28,52
ABC,LB,ABC-01-049,254,S5689712,HGB,Hemoglobin,URINALYSIS,NEGATIVE,,,,NEGATIVE,,,,,,,,,12,WEEK 12,2007-02-20T11:15:00,106,2007-02-09,95
ABC,LB,ABC-01-049,255,S9106303,KETONES,Ketones,URINALYSIS,NEGATIVE,,,,NEGATIVE,,,,,,,,,0,SCREENING,2006-10-26T10:11:00,-12,2006-10-25,-13
ABC,LB,ABC-01-049,256,S8466341,KETONES,Ketones,URINALYSIS,NEGATIVE,,,,NEGATIVE,,,,,,,,Y,1,DAY 1,2006-11-07T12:27:00,1,2006-11-07,1
ABC,LB,ABC-01-049,257,S7356687,KETONES,Ketones,URINALYSIS,NEGATIVE,,,,NEGATIVE,,,,,,,,,6,WEEK 6,2006-12-28T14:00:00,52,2006-12-28,52
ABC,LB,ABC-01-049,258,S5689712,KETONES,Ketones,URINALYSIS,NEGATIVE,,,,NEGATIVE,,,,,,,,,12,WEEK 12,2007-02-20T11:15:00,106,2007-02-09,95
ABC,LB,ABC-01-049,259,S9106303,MICRO,Microscopy,URINALYSIS,NORMAL,,,,NORMAL,,,,,,,,,0,SCREENING,2006-10-26T10:11:00,-12,2006-10-25,-13
ABC,LB,ABC-01-049,260,S8466341,MICRO,Microscopy,URINALYSIS,NORMAL,,,,NORMAL,,,,,,,,Y,1,DAY 1,2006-11-07T12:27:00,1,2006-11-07,1
ABC,LB,ABC-01-049,261,S7356687,MICRO,Microscopy,URINALYSIS,NORMAL,,,,NORMAL,,,,,,,,,6,WEEK 6,2006-12-28T14:00:00,52,2006-12-28,52
ABC,LB,ABC-01-049,262,S5689712,MICRO,Microscopy,URINALYSIS,NORMAL,,,,NORMAL,,,,,,,,,12,WEEK 12,2007-02-20T11:15:00,106,2007-02-09,95
ABC,LB,ABC-01-049,263,S9106303,NITRITE,Nitrite,URINALYSIS,NEGATIVE,,,,NEGATIVE,,,,,,,,,0,SCREENING,2006-10-26T10:11:00,-12,2006-10-25,-13
ABC,LB,ABC-01-049,264,S8466341,NITRITE,Nitrite,URINALYSIS,NEGATIVE,,,,NEGATIVE,,,,,,,,Y,1,DAY 1,2006-11-07T12:27:00,1,2006-11-07,1
ABC,LB,ABC-01-049,265,S7356687,NITRITE,Nitrite,URINALYSIS,NEGATIVE,,,,NEGATIVE,,,,,,,,,6,WEEK 6,2006-12-28T14:00:00,52,2006-12-28,52
ABC,LB,ABC-01-049,266,S5689712,NITRITE,Nitrite,URINALYSIS,NEGATIVE,,,,NEGATIVE,,,,,,,,,12,WEEK 12,2007-02-20T11:15:00,106,2007-02-09,95
ABC,LB,ABC-01-049,267,S9106303,PH,pH,URINALYSIS,5.0,,,,5.0,5,,,,,,,,0,SCREENING,2006-10-26T10:11:00,-12,2006-10-25,-13
ABC,LB,ABC-01-049,268,S8466341,PH,pH,URINALYSIS,6.5,,,,6.5,6.5,,,,,,,Y,1,DAY 1,2006-11-07T12:27:00,1,2006-11-07,1
ABC,LB,ABC-01-049,269,S7356687,PH,pH,URINALYSIS,6.5,,,,6.5,6.5,,,,,,,,6,WEEK 6,2006-12-28T14:00:00,52,2006-12-28,52
ABC,LB,ABC-01-049,270,S5689712,PH,pH,URINALYSIS,5.0,,,,5.0,5,,,,,,,,12,WEEK 12,2007-02-20T11:15:00,106,2007-02-09,95
ABC,LB,ABC-01-049,271,S4548792,PHOSCONC,Phosphate Concentration,URINALYSIS,23,mg/dL,,,23.0,23,mg/dL,,,,,,,0,SCREENING,2006-10-26T10:11:00,-12,2006-10-25,-13
ABC,LB,ABC-01-049,272,S5184436,PHOSCONC,Phosphate Concentration,URINALYSIS,51,mg/dL,,,51.0,51,mg/dL,,,,,,Y,1,DAY 1,2006-11-07T12:27:00,1,2006-11-07,1
ABC,LB,ABC-01-049,273,S8398472,PHOSCONC,Phosphate Concentration,URINALYSIS,39,mg/dL,,,39.0,39,mg/dL,,,,,,,6,WEEK 6,2006-12-28T14:00:00,52,2006-12-28,52
ABC,LB,ABC-01-049,274,S1337121,PHOSCONC,Phosphate Concentration,URINALYSIS,40,mg/dL,,,40.0,40,mg/dL,,,,,,,12,WEEK 12,2007-02-20T11:15:00,106,2007-02-09,95
ABC,LB,ABC-01-049,275,S9106303,PROT,Protein,URINALYSIS,NEGATIVE,,,,NEGATIVE,,,,,,,,,0,SCREENING,2006-10-26T10:11:00,-12,2006-10-25,-13
ABC,LB,ABC-01-049,276,S8466341,PROT,Protein,URINALYSIS,NEGATIVE,,,,NEGATIVE,,,,,,,,Y,1,DAY 1,2006-11-07T12:27:00,1,2006-11-07,1
ABC,LB,ABC-01-049,277,S7356687,PROT,Protein,URINALYSIS,NEGATIVE,,,,NEGATIVE,,,,,,,,,6,WEEK 6,2006-12-28T14:00:00,52,2006-12-28,52
ABC,LB,ABC-01-049,278,S5689712,PROT,Protein,URINALYSIS,NEGATIVE,,,,NEGATIVE,,,,,,,,,12,WEEK 12,2007-02-20T11:15:00,106,2007-02-09,95
ABC,LB,ABC-01-049,279,S9106303,SPGRAV,Specific Gravity,URINALYSIS,1.020,,,,1.020,1.02,,,,,,,,0,SCREENING,2006-10-26T10:11:00,-12,2006-10-25,-13
ABC,LB,ABC-01-049,280,S8466341,SPGRAV,Specific Gravity,URINALYSIS,1.015,,,,1.015,1.015,,,,,,,Y,1,DAY 1,2006-11-07T12:27:00,1,2006-11-07,1
ABC,LB,ABC-01-049,281,S7356687,SPGRAV,Specific Gravity,URINALYSIS,1.015,,,,1.015,1.015,,,,,,,,6,WEEK 6,2006-12-28T14:00:00,52,2006-12-28,52
ABC,LB,ABC-01-049,282,S5689712,SPGRAV,Specific Gravity,URINALYSIS,1.015,,,,1.015,1.015,,,,,,,,12,WEEK 12,2007-02-20T11:15:00,106,2007-02-09,95
ABC,LB,ABC-01-049,283,S9106303,UROBIL,Urobilinogen,URINALYSIS,NORMAL,,,,NORMAL,,,,,,,,,0,SCREENING,2006-10-26T10:11:00,-12,2006-10-25,-13
ABC,LB,ABC-01-049,284,S8466341,UROBIL,Urobilinogen,URINALYSIS,NORMAL,,,,NORMAL,,,,,,,,Y,1,DAY 1,2006-11-07T12:27:00,1,2006-11-07,1
ABC,LB,ABC-01-049,285,S7356687,UROBIL,Urobilinogen,URINALYSIS,NORMAL,,,,NORMAL,,,,,,,,,6,WEEK 6,2006-12-28T14:00:00,52,2006-12-28,52
ABC,LB,ABC-01-049,286,S5689712,UROBIL,Urobilinogen,URINALYSIS,NORMAL,,,,NORMAL,,,,,,,,,12,WEEK 12,2007-02-20T11:15:00,106,2007-02-09,95
ABC,LB,ABC-01-050,1,S9992541,ALB,Albumin,CHEMISTRY,4.7,g/dL,3.5,5.0,4.7,4.7,g/dL,3.5,5,NORMAL,,,,0,SCREENING,2006-10-25T13:05:00,-8,2006-10-25,-8
ABC,LB,ABC-01-050,2,S9359044,ALB,Albumin,CHEMISTRY,4.6,g/dL,3.5,5.0,4.6,4.6,g/dL,3.5,5,NORMAL,,,Y,1,DAY 1,2006-11-02T12:33:00,1,2006-11-02,1
ABC,LB,ABC-01-050,3,S0419911,ALB,Albumin,CHEMISTRY,4.4,g/dL,3.5,5.0,4.4,4.4,g/dL,3.5,5,NORMAL,,,,2,WEEK 2,2006-11-16T09:42:00,15,2006-11-16,15
ABC,LB,ABC-01-050,4,S8550485,ALB,Albumin,CHEMISTRY,4.4,g/dL,3.5,5.0,4.4,4.4,g/dL,3.5,5,NORMAL,,,,6,WEEK 6,2006-12-14T08:03:00,43,2006-12-14,43
ABC,LB,ABC-01-050,5,S3508734,ALB,Albumin,CHEMISTRY,4.4,g/dL,3.5,5.0,4.4,4.4,g/dL,3.5,5,NORMAL,,,,12,WEEK 12,2007-01-30T09:45:00,90,2007-01-30,90
ABC,LB,ABC-01-050,6,S9992541,ALP,Alkaline Phosphatase,CHEMISTRY,106,U/L,45,115,106,106,U/L,45,115,NORMAL,,,,0,SCREENING,2006-10-25T13:05:00,-8,2006-10-25,-8
ABC,LB,ABC-01-050,7,S9359044,ALP,Alkaline Phosphatase,CHEMISTRY,100,U/L,45,115,100,100,U/L,45,115,NORMAL,,,Y,1,DAY 1,2006-11-02T12:33:00,1,2006-11-02,1
ABC,LB,ABC-01-050,8,S0419911,ALP,Alkaline Phosphatase,CHEMISTRY,87,U/L,45,115,87,87,U/L,45,115,NORMAL,,,,2,WEEK 2,2006-11-16T09:42:00,15,2006-11-16,15
ABC,LB,ABC-01-050,9,S8550485,ALP,Alkaline Phosphatase,CHEMISTRY,88,U/L,45,115,88,88,U/L,45,115,NORMAL,,,,6,WEEK 6,2006-12-14T08:03:00,43,2006-12-14,43
ABC,LB,ABC-01-050,10,S3508734,ALP,Alkaline Phosphatase,CHEMISTRY,83,U/L,45,115,83,83,U/L,45,115,NORMAL,,,,12,WEEK 12,2007-01-30T09:45:00,90,2007-01-30,90
ABC,LB,ABC-01-050,11,S9992541,ALT,Alanine Aminotransferase,CHEMISTRY,49,U/L,10,45,49,49,U/L,10,45,HIGH,,,,0,SCREENING,2006-10-25T13:05:00,-8,2006-10-25,-8
ABC,LB,ABC-01-050,12,S9359044,ALT,Alanine Aminotransferase,CHEMISTRY,45,U/L,10,45,45,45,U/L,10,45,NORMAL,,,Y,1,DAY 1,2006-11-02T12:33:00,1,2006-11-02,1
ABC,LB,ABC-01-050,13,S0419911,ALT,Alanine Aminotransferase,CHEMISTRY,29,U/L,10,45,29,29,U/L,10,45,NORMAL,,,,2,WEEK 2,2006-11-16T09:42:00,15,2006-11-16,15
ABC,LB,ABC-01-050,14,S8550485,ALT,Alanine Aminotransferase,CHEMISTRY,41,U/L,10,45,41,41,U/L,10,45,NORMAL,,,,6,WEEK 6,2006-12-14T08:03:00,43,2006-12-14,43
ABC,LB,ABC-01-050,15,S3508734,ALT,Alanine Aminotransferase,CHEMISTRY,33,U/L,10,45,33,33,U/L,10,45,NORMAL,,,,12,WEEK 12,2007-01-30T09:45:00,90,2007-01-30,90
ABC,LB,ABC-01-050,16,S9992541,AST,Aspartate Aminotransferase,CHEMISTRY,29,U/L,12,31,29,29,U/L,12,31,NORMAL,,,,0,SCREENING,2006-10-25T13:05:00,-8,2006-10-25,-8
ABC,LB,ABC-01-050,17,S9359044,AST,Aspartate Aminotransferase,CHEMISTRY,27,U/L,12,31,27,27,U/L,12,31,NORMAL,,,Y,1,DAY 1,2006-11-02T12:33:00,1,2006-11-02,1
ABC,LB,ABC-01-050,18,S0419911,AST,Aspartate Aminotransferase,CHEMISTRY,19,U/L,12,31,19,19,U/L,12,31,NORMAL,,,,2,WEEK 2,2006-11-16T09:42:00,15,2006-11-16,15
ABC,LB,ABC-01-050,19,S8550485,AST,Aspartate Aminotransferase,CHEMISTRY,25,U/L,12,31,25,25,U/L,12,31,NORMAL,,,,6,WEEK 6,2006-12-14T08:03:00,43,2006-12-14,43
ABC,LB,ABC-01-050,20,S3508734,AST,Aspartate Aminotransferase,CHEMISTRY,26,U/L,12,31,26,26,U/L,12,31,NORMAL,,,,12,WEEK 12,2007-01-30T09:45:00,90,2007-01-30,90
ABC,LB,ABC-01-050,21,S9992541,BILI,Bilirubin,CHEMISTRY,0.9,mg/dL,0.1,1.0,0.9,0.9,mg/dL,0.1,1,NORMAL,,,,0,SCREENING,2006-10-25T13:05:00,-8,2006-10-25,-8
ABC,LB,ABC-01-050,22,S9359044,BILI,Bilirubin,CHEMISTRY,0.8,mg/dL,0.1,1.0,0.8,0.8,mg/dL,0.1,1,NORMAL,,,Y,1,DAY 1,2006-11-02T12:33:00,1,2006-11-02,1
ABC,LB,ABC-01-050,23,S0419911,BILI,Bilirubin,CHEMISTRY,1.0,mg/dL,0.1,1.0,1.0,1,mg/dL,0.1,1,NORMAL,,,,2,WEEK 2,2006-11-16T09:42:00,15,2006-11-16,15
ABC,LB,ABC-01-050,24,S8550485,BILI,Bilirubin,CHEMISTRY,0.6,mg/dL,0.1,1.0,0.6,0.6,mg/dL,0.1,1,NORMAL,,,,6,WEEK 6,2006-12-14T08:03:00,43,2006-12-14,43
ABC,LB,ABC-01-050,25,S3508734,BILI,Bilirubin,CHEMISTRY,0.6,mg/dL,0.1,1.0,0.6,0.6,mg/dL,0.1,1,NORMAL,,,,12,WEEK 12,2007-01-30T09:45:00,90,2007-01-30,90
ABC,LB,ABC-01-050,26,S9992541,BUN,Blood Urea Nitrogen,CHEMISTRY,20,mg/dL,8,24,20,20,mg/dL,8,24,NORMAL,,,,0,SCREENING,2006-10-25T13:05:00,-8,2006-10-25,-8
ABC,LB,ABC-01-050,27,S9359044,BUN,Blood Urea Nitrogen,CHEMISTRY,22,mg/dL,8,24,22,22,mg/dL,8,24,NORMAL,,,Y,1,DAY 1,2006-11-02T12:33:00,1,2006-11-02,1
ABC,LB,ABC-01-050,28,S0419911,BUN,Blood Urea Nitrogen,CHEMISTRY,20,mg/dL,8,24,20,20,mg/dL,8,24,NORMAL,,,,2,WEEK 2,2006-11-16T09:42:00,15,2006-11-16,15
ABC,LB,ABC-01-050,29,S8550485,BUN,Blood Urea Nitrogen,CHEMISTRY,20,mg/dL,8,24,20,20,mg/dL,8,24,NORMAL,,,,6,WEEK 6,2006-12-14T08:03:00,43,2006-12-14,43
ABC,LB,ABC-01-050,30,S3508734,BUN,Blood Urea Nitrogen,CHEMISTRY,23,mg/dL,8,24,23,23,mg/dL,8,24,NORMAL,,,,12,WEEK 12,2007-01-30T09:45:00,90,2007-01-30,90
ABC,LB,ABC-01-050,31,S9992541,CA,Calcium,CHEMISTRY,9.6,mg/dL,8.9,10.1,9.6,9.6,mg/dL,8.9,10.1,NORMAL,,,,0,SCREENING,2006-10-25T13:05:00,-8,2006-10-25,-8
ABC,LB,ABC-01-050,32,S9359044,CA,Calcium,CHEMISTRY,9.2,mg/dL,8.9,10.1,9.2,9.2,mg/dL,8.9,10.1,NORMAL,,,Y,1,DAY 1,2006-11-02T12:33:00,1,2006-11-02,1
ABC,LB,ABC-01-050,33,S0419911,CA,Calcium,CHEMISTRY,9.3,mg/dL,8.9,10.1,9.3,9.3,mg/dL,8.9,10.1,NORMAL,,,,2,WEEK 2,2006-11-16T09:42:00,15,2006-11-16,15
ABC,LB,ABC-01-050,34,S8550485,CA,Calcium,CHEMISTRY,9.4,mg/dL,8.9,10.1,9.4,9.4,mg/dL,8.9,10.1,NORMAL,,,,6,WEEK 6,2006-12-14T08:03:00,43,2006-12-14,43
ABC,LB,ABC-01-050,35,S3508734,CA,Calcium,CHEMISTRY,9.1,mg/dL,8.9,10.1,9.1,9.1,mg/dL,8.9,10.1,NORMAL,,,,12,WEEK 12,2007-01-30T09:45:00,90,2007-01-30,90
ABC,LB,ABC-01-050,36,S9992541,CHOL,Cholesterol,CHEMISTRY,181,mg/dL,0,239,181,181,mg/dL,0,239,NORMAL,,,,0,SCREENING,2006-10-25T13:05:00,-8,2006-10-25,-8
ABC,LB,ABC-01-050,37,S9359044,CHOL,Cholesterol,CHEMISTRY,165,mg/dL,0,239,165,165,mg/dL,0,239,NORMAL,,,Y,1,DAY 1,2006-11-02T12:33:00,1,2006-11-02,1
ABC,LB,ABC-01-050,38,S0419911,CHOL,Cholesterol,CHEMISTRY,145,mg/dL,0,239,145,145,mg/dL,0,239,NORMAL,,,,2,WEEK 2,2006-11-16T09:42:00,15,2006-11-16,15
ABC,LB,ABC-01-050,39,S8550485,CHOL,Cholesterol,CHEMISTRY,163,mg/dL,0,239,163,163,mg/dL,0,239,NORMAL,,,,6,WEEK 6,2006-12-14T08:03:00,43,2006-12-14,43
ABC,LB,ABC-01-050,40,S3508734,CHOL,Cholesterol,CHEMISTRY,153,mg/dL,0,239,153,153,mg/dL,0,239,NORMAL,,,,12,WEEK 12,2007-01-30T09:45:00,90,2007-01-30,90
ABC,LB,ABC-01-050,41,S9992541,CL,Chloride,CHEMISTRY,102,mmol/L,100,108,102,102,mmol/L,100,108,NORMAL,,,,0,SCREENING,2006-10-25T13:05:00,-8,2006-10-25,-8
ABC,LB,ABC-01-050,42,S9359044,CL,Chloride,CHEMISTRY,104,mmol/L,100,108,104,104,mmol/L,100,108,NORMAL,,,Y,1,DAY 1,2006-11-02T12:33:00,1,2006-11-02,1
ABC,LB,ABC-01-050,43,S0419911,CL,Chloride,CHEMISTRY,104,mmol/L,100,108,104,104,mmol/L,100,108,NORMAL,,,,2,WEEK 2,2006-11-16T09:42:00,15,2006-11-16,15
ABC,LB,ABC-01-050,44,S8550485,CL,Chloride,CHEMISTRY,106,mmol/L,100,108,106,106,mmol/L,100,108,NORMAL,,,,6,WEEK 6,2006-12-14T08:03:00,43,2006-12-14,43
ABC,LB,ABC-01-050,45,S3508734,CL,Chloride,CHEMISTRY,104,mmol/L,100,108,104,104,mmol/L,100,108,NORMAL,,,,12,WEEK 12,2007-01-30T09:45:00,90,2007-01-30,90
ABC,LB,ABC-01-050,46,S9992541,CREAT,Creatinine,CHEMISTRY,1.2,mg/dL,0.9,1.4,1.2,1.2,mg/dL,0.9,1.4,NORMAL,,,,0,SCREENING,2006-10-25T13:05:00,-8,2006-10-25,-8
ABC,LB,ABC-01-050,47,S9359044,CREAT,Creatinine,CHEMISTRY,1.3,mg/dL,0.9,1.4,1.3,1.3,mg/dL,0.9,1.4,NORMAL,,,Y,1,DAY 1,2006-11-02T12:33:00,1,2006-11-02,1
ABC,LB,ABC-01-050,48,S0419911,CREAT,Creatinine,CHEMISTRY,1.2,mg/dL,0.9,1.4,1.2,1.2,mg/dL,0.9,1.4,NORMAL,,,,2,WEEK 2,2006-11-16T09:42:00,15,2006-11-16,15
ABC,LB,ABC-01-050,49,S8550485,CREAT,Creatinine,CHEMISTRY,1.2,mg/dL,0.9,1.4,1.2,1.2,mg/dL,0.9,1.4,NORMAL,,,,6,WEEK 6,2006-12-14T08:03:00,43,2006-12-14,43
ABC,LB,ABC-01-050,50,S3508734,CREAT,Creatinine,CHEMISTRY,1.2,mg/dL,0.9,1.4,1.2,1.2,mg/dL,0.9,1.4,NORMAL,,,,12,WEEK 12,2007-01-30T09:45:00,90,2007-01-30,90
ABC,LB,ABC-01-050,51,S9992541,GLUC,Glucose,CHEMISTRY,105,mg/dL,70,100,105,105,mg/dL,70,100,HIGH,,,,0,SCREENING,2006-10-25T13:05:00,-8,2006-10-25,-8
ABC,LB,ABC-01-050,52,S9359044,GLUC,Glucose,CHEMISTRY,110,mg/dL,70,100,110,110,mg/dL,70,100,HIGH,,,Y,1,DAY 1,2006-11-02T12:33:00,1,2006-11-02,1
ABC,LB,ABC-01-050,53,S0419911,GLUC,Glucose,CHEMISTRY,95,mg/dL,70,100,95,95,mg/dL,70,100,NORMAL,,,,2,WEEK 2,2006-11-16T09:42:00,15,2006-11-16,15
ABC,LB,ABC-01-050,54,S8550485,GLUC,Glucose,CHEMISTRY,76,mg/dL,70,100,76,76,mg/dL,70,100,NORMAL,,,,6,WEEK 6,2006-12-14T08:03:00,43,2006-12-14,43
ABC,LB,ABC-01-050,55,S3508734,GLUC,Glucose,CHEMISTRY,117,mg/dL,70,100,117,117,mg/dL,70,100,HIGH,,,,12,WEEK 12,2007-01-30T09:45:00,90,2007-01-30,90
ABC,LB,ABC-01-050,56,S9992541,K,Potassium,CHEMISTRY,4.6,mmol/L,3.6,4.8,4.6,4.6,mmol/L,3.6,4.8,NORMAL,,,,0,SCREENING,2006-10-25T13:05:00,-8,2006-10-25,-8
ABC,LB,ABC-01-050,57,S9359044,K,Potassium,CHEMISTRY,5.0,mmol/L,3.6,4.8,5.0,5,mmol/L,3.6,4.8,HIGH,,,Y,1,DAY 1,2006-11-02T12:33:00,1,2006-11-02,1
ABC,LB,ABC-01-050,58,S0419911,K,Potassium,CHEMISTRY,4.8,mmol/L,3.6,4.8,4.8,4.8,mmol/L,3.6,4.8,NORMAL,,,,2,WEEK 2,2006-11-16T09:42:00,15,2006-11-16,15
ABC,LB,ABC-01-050,59,S8550485,K,Potassium,CHEMISTRY,4.9,mmol/L,3.6,4.8,4.9,4.9,mmol/L,3.6,4.8,HIGH,,,,6,WEEK 6,2006-12-14T08:03:00,43,2006-12-14,43
ABC,LB,ABC-01-050,60,S3508734,K,Potassium,CHEMISTRY,4.5,mmol/L,3.6,4.8,4.5,4.5,mmol/L,3.6,4.8,NORMAL,,,,12,WEEK 12,2007-01-30T09:45:00,90,2007-01-30,90
ABC,LB,ABC-01-050,61,S9992541,LIPASE,Triacylglycerol Lipase,CHEMISTRY,20,U/L,10,73,20,20,U/L,10,73,NORMAL,,,,0,SCREENING,2006-10-25T13:05:00,-8,2006-10-25,-8
ABC,LB,ABC-01-050,62,S9359044,LIPASE,Triacylglycerol Lipase,CHEMISTRY,21,U/L,10,73,21,21,U/L,10,73,NORMAL,,,Y,1,DAY 1,2006-11-02T12:33:00,1,2006-11-02,1
ABC,LB,ABC-01-050,63,S0419911,LIPASE,Triacylglycerol Lipase,CHEMISTRY,37,U/L,10,73,37,37,U/L,10,73,NORMAL,,,,2,WEEK 2,2006-11-16T09:42:00,15,2006-11-16,15
ABC,LB,ABC-01-050,64,S8550485,LIPASE,Triacylglycerol Lipase,CHEMISTRY,40,U/L,10,73,40,40,U/L,10,73,NORMAL,,,,6,WEEK 6,2006-12-14T08:03:00,43,2006-12-14,43
ABC,LB,ABC-01-050,65,S3508734,LIPASE,Triacylglycerol Lipase,CHEMISTRY,41,U/L,10,73,41,41,U/L,10,73,NORMAL,,,,12,WEEK 12,2007-01-30T09:45:00,90,2007-01-30,90
ABC,LB,ABC-01-050,66,S9992541,PHOS,Phosphate,CHEMISTRY,3.5,mg/dL,2.5,4.5,3.5,3.5,mg/dL,2.5,4.5,NORMAL,,,,0,SCREENING,2006-10-25T13:05:00,-8,2006-10-25,-8
ABC,LB,ABC-01-050,67,S9359044,PHOS,Phosphate,CHEMISTRY,3.2,mg/dL,2.5,4.5,3.2,3.2,mg/dL,2.5,4.5,NORMAL,,,Y,1,DAY 1,2006-11-02T12:33:00,1,2006-11-02,1
ABC,LB,ABC-01-050,68,S0419911,PHOS,Phosphate,CHEMISTRY,3.0,mg/dL,2.5,4.5,3.0,3,mg/dL,2.5,4.5,NORMAL,,,,2,WEEK 2,2006-11-16T09:42:00,15,2006-11-16,15
ABC,LB,ABC-01-050,69,S8550485,PHOS,Phosphate,CHEMISTRY,3.3,mg/dL,2.5,4.5,3.3,3.3,mg/dL,2.5,4.5,NORMAL,,,,6,WEEK 6,2006-12-14T08:03:00,43,2006-12-14,43
ABC,LB,ABC-01-050,70,S3508734,PHOS,Phosphate,CHEMISTRY,2.9,mg/dL,2.5,4.5,2.9,2.9,mg/dL,2.5,4.5,NORMAL,,,,12,WEEK 12,2007-01-30T09:45:00,90,2007-01-30,90
ABC,LB,ABC-01-050,71,S9992541,PROT,Protein,CHEMISTRY,7.3,g/dL,6.3,7.9,7.3,7.3,g/dL,6.3,7.9,NORMAL,,,,0,SCREENING,2006-10-25T13:05:00,-8,2006-10-25,-8
ABC,LB,ABC-01-050,72,S9359044,PROT,Protein,CHEMISTRY,7.2,g/dL,6.3,7.9,7.2,7.2,g/dL,6.3,7.9,NORMAL,,,Y,1,DAY 1,2006-11-02T12:33:00,1,2006-11-02,1
ABC,LB,ABC-01-050,73,S0419911,PROT,Protein,CHEMISTRY,6.9,g/dL,6.3,7.9,6.9,6.9,g/dL,6.3,7.9,NORMAL,,,,2,WEEK 2,2006-11-16T09:42:00,15,2006-11-16,15
ABC,LB,ABC-01-050,74,S8550485,PROT,Protein,CHEMISTRY,6.8,g/dL,6.3,7.9,6.8,6.8,g/dL,6.3,7.9,NORMAL,,,,6,WEEK 6,2006-12-14T08:03:00,43,2006-12-14,43
ABC,LB,ABC-01-050,75,S3508734,PROT,Protein,CHEMISTRY,6.8,g/dL,6.3,7.9,6.8,6.8,g/dL,6.3,7.9,NORMAL,,,,12,WEEK 12,2007-01-30T09:45:00,90,2007-01-30,90
ABC,LB,ABC-01-050,76,S9992541,SODIUM,Sodium,CHEMISTRY,138,mmol/L,135,145,138,138,mmol/L,135,145,NORMAL,,,,0,SCREENING,2006-10-25T13:05:00,-8,2006-10-25,-8
ABC,LB,ABC-01-050,77,S9359044,SODIUM,Sodium,CHEMISTRY,138,mmol/L,135,145,138,138,mmol/L,135,145,NORMAL,,,Y,1,DAY 1,2006-11-02T12:33:00,1,2006-11-02,1
ABC,LB,ABC-01-050,78,S0419911,SODIUM,Sodium,CHEMISTRY,137,mmol/L,135,145,137,137,mmol/L,135,145,NORMAL,,,,2,WEEK 2,2006-11-16T09:42:00,15,2006-11-16,15
ABC,LB,ABC-01-050,79,S8550485,SODIUM,Sodium,CHEMISTRY,142,mmol/L,135,145,142,142,mmol/L,135,145,NORMAL,,,,6,WEEK 6,2006-12-14T08:03:00,43,2006-12-14,43
ABC,LB,ABC-01-050,80,S3508734,SODIUM,Sodium,CHEMISTRY,139,mmol/L,135,145,139,139,mmol/L,135,145,NORMAL,,,,12,WEEK 12,2007-01-30T09:45:00,90,2007-01-30,90
ABC,LB,ABC-01-050,81,S9992541,TRIG,Triglycerides,CHEMISTRY,101,mg/dL,0,199,101,101,mg/dL,0,199,NORMAL,,,,0,SCREENING,2006-10-25T13:05:00,-8,2006-10-25,-8
ABC,LB,ABC-01-050,82,S9359044,TRIG,Triglycerides,CHEMISTRY,112,mg/dL,0,199,112,112,mg/dL,0,199,NORMAL,,,Y,1,DAY 1,2006-11-02T12:33:00,1,2006-11-02,1
ABC,LB,ABC-01-050,83,S0419911,TRIG,Triglycerides,CHEMISTRY,62,mg/dL,0,199,62,62,mg/dL,0,199,NORMAL,,,,2,WEEK 2,2006-11-16T09:42:00,15,2006-11-16,15
ABC,LB,ABC-01-050,84,S8550485,TRIG,Triglycerides,CHEMISTRY,120,mg/dL,0,199,120,120,mg/dL,0,199,NORMAL,,,,6,WEEK 6,2006-12-14T08:03:00,43,2006-12-14,43
ABC,LB,ABC-01-050,85,S3508734,TRIG,Triglycerides,CHEMISTRY,56,mg/dL,0,199,56,56,mg/dL,0,199,NORMAL,,,,12,WEEK 12,2007-01-30T09:45:00,90,2007-01-30,90
ABC,LB,ABC-01-050,86,S9992541,URATE,Uric Acid,CHEMISTRY,6.6,mg/dL,4.3,8.0,6.6,6.6,mg/dL,4.3,8,NORMAL,,,,0,SCREENING,2006-10-25T13:05:00,-8,2006-10-25,-8
ABC,LB,ABC-01-050,87,S9359044,URATE,Uric Acid,CHEMISTRY,7.4,mg/dL,4.3,8.0,7.4,7.4,mg/dL,4.3,8,NORMAL,,,Y,1,DAY 1,2006-11-02T12:33:00,1,2006-11-02,1
ABC,LB,ABC-01-050,88,S0419911,URATE,Uric Acid,CHEMISTRY,7.0,mg/dL,4.3,8.0,7.0,7,mg/dL,4.3,8,NORMAL,,,,2,WEEK 2,2006-11-16T09:42:00,15,2006-11-16,15
ABC,LB,ABC-01-050,89,S8550485,URATE,Uric Acid,CHEMISTRY,6.1,mg/dL,4.3,8.0,6.1,6.1,mg/dL,4.3,8,NORMAL,,,,6,WEEK 6,2006-12-14T08:03:00,43,2006-12-14,43
ABC,LB,ABC-01-050,90,S3508734,URATE,Uric Acid,CHEMISTRY,6.7,mg/dL,4.3,8.0,6.7,6.7,mg/dL,4.3,8,NORMAL,,,,12,WEEK 12,2007-01-30T09:45:00,90,2007-01-30,90
ABC,LB,ABC-01-050,91,S1422260,HCG,Choriogonadotropin Beta,ENDOCRINE,,,,,,,,,,,NOT DONE,Screening number is not required at Screening Visit. 10/30/06 Pregnancy test not required per study site.,,0,SCREENING,2006-10-25T13:05:00,-8,2006-10-25,-8
ABC,LB,ABC-01-050,92,S0871931,OSTEOC,Osteocalcin,ENDOCRINE,13.4,ng/mL,,,13.4,13.4,ug/L,,,,,,Y,1,DAY 1,2006-11-02T12:33:00,1,2006-11-02,1
ABC,LB,ABC-01-050,93,S0370111,OSTEOC,Osteocalcin,ENDOCRINE,15.5,ng/mL,,,15.5,15.5,ug/L,,,,,,,6,WEEK 6,2006-12-14T08:03:00,43,2006-12-14,43
ABC,LB,ABC-01-050,94,S8736434,OSTEOC,Osteocalcin,ENDOCRINE,13.1,ng/mL,,,13.1,13.1,ug/L,,,,,,,12,WEEK 12,2007-01-30T09:45:00,90,2007-01-30,90
ABC,LB,ABC-01-050,95,S3012862,PTHI,"Parathyroid Hormone, Intact",ENDOCRINE,36,pg/mL,11,67,3.8,3.8,pmol/L,1.2,7,NORMAL,,,,1,DAY 1,2006-11-02T12:33:00,1,2006-11-02,1
ABC,LB,ABC-01-050,96,S3012862,PTHI,"Parathyroid Hormone, Intact",ENDOCRINE,3.8,pmol/L,1.1,7.1,3.8,3.8,pmol/L,1.1,7.1,NORMAL,,,Y,1,DAY 1,2006-11-02T12:33:00,1,2006-11-02,1
ABC,LB,ABC-01-050,97,S8217881,PTHI,"Parathyroid Hormone, Intact",ENDOCRINE,22,pg/mL,11,67,2.3,2.3,pmol/L,1.2,7,NORMAL,,,,6,WEEK 6,2006-12-14T08:03:00,43,2006-12-14,43
ABC,LB,ABC-01-050,98,S8217881,PTHI,"Parathyroid Hormone, Intact",ENDOCRINE,2.3,pmol/L,1.1,7.1,2.3,2.3,pmol/L,1.1,7.1,NORMAL,,,,6,WEEK 6,2006-12-14T08:03:00,43,2006-12-14,43
ABC,LB,ABC-01-050,99,S1288026,PTHI,"Parathyroid Hormone, Intact",ENDOCRINE,,,,,,,,,,,NOT DONE,Specimen received refrigerated;unable to process.,,12,WEEK 12,2007-01-30T09:45:00,90,2007-01-30,90
ABC,LB,ABC-01-050,100,S1288026,PTHI,"Parathyroid Hormone, Intact",ENDOCRINE,,,,,,,,,,,NOT DONE,Specimen received refrigerated;unable to process.,,12,WEEK 12,2007-01-30T09:45:00,90,2007-01-30,90
ABC,LB,ABC-01-050,101,S9625401,VITDAT,"1, 25-Dihydroxyvitamin D",ENDOCRINE,60,pg/mL,22,67,6.30,6.3,pmol/L,2.31,7.04,NORMAL,,,Y,1,DAY 1,2006-11-02T12:33:00,1,2006-11-02,1
ABC,LB,ABC-01-050,102,S9134304,VITDAT,"1, 25-Dihydroxyvitamin D",ENDOCRINE,43,pg/mL,22,67,4.52,4.52,pmol/L,2.31,7.04,NORMAL,,,,6,WEEK 6,2006-12-14T08:03:00,43,2006-12-14,43
ABC,LB,ABC-01-050,103,S2514437,VITDAT,"1, 25-Dihydroxyvitamin D",ENDOCRINE,37,pg/mL,22,67,3.89,3.89,pmol/L,2.31,7.04,NORMAL,,,,12,WEEK 12,2007-01-30T09:45:00,90,2007-01-30,90
ABC,LB,ABC-01-050,104,S2696802,VITDIT,25-Hydroxyvitamin D,ENDOCRINE,28,ng/mL,25,80,28.0,28,ug/L,25,80,NORMAL,,,Y,1,DAY 1,2006-11-02T12:33:00,1,2006-11-02,1
ABC,LB,ABC-01-050,105,S6655978,VITDIT,25-Hydroxyvitamin D,ENDOCRINE,25,ng/mL,25,80,25.0,25,ug/L,25,80,NORMAL,,,,6,WEEK 6,2006-12-14T08:03:00,43,2006-12-14,43
ABC,LB,ABC-01-050,106,S4925976,VITDIT,25-Hydroxyvitamin D,ENDOCRINE,24,ng/mL,25,80,24.0,24,ug/L,25,80,LOW,,,,12,WEEK 12,2007-01-30T09:45:00,90,2007-01-30,90
ABC,LB,ABC-01-050,107,S2696802,VITDIT2,25-Hydroxyvitamin D2,ENDOCRINE,<4.0,ng/mL,,,<4.0,,ug/L,,,,,,Y,1,DAY 1,2006-11-02T12:33:00,1,2006-11-02,1
ABC,LB,ABC-01-050,108,S6655978,VITDIT2,25-Hydroxyvitamin D2,ENDOCRINE,<4.0,ng/mL,,,<4.0,,ug/L,,,,,,,6,WEEK 6,2006-12-14T08:03:00,43,2006-12-14,43
ABC,LB,ABC-01-050,109,S4925976,VITDIT2,25-Hydroxyvitamin D2,ENDOCRINE,<4.0,ng/mL,,,<4.0,,ug/L,,,,,,,12,WEEK 12,2007-01-30T09:45:00,90,2007-01-30,90
ABC,LB,ABC-01-050,110,S2696802,VITDIT3,25-Hydroxyvitamin D3,ENDOCRINE,28,ng/mL,,,28.0,28,ug/L,,,,,,Y,1,DAY 1,2006-11-02T12:33:00,1,2006-11-02,1
ABC,LB,ABC-01-050,111,S6655978,VITDIT3,25-Hydroxyvitamin D3,ENDOCRINE,25,ng/mL,,,25.0,25,ug/L,,,,,,,6,WEEK 6,2006-12-14T08:03:00,43,2006-12-14,43
ABC,LB,ABC-01-050,112,S4925976,VITDIT3,25-Hydroxyvitamin D3,ENDOCRINE,24,ng/mL,,,24.0,24,ug/L,,,,,,,12,WEEK 12,2007-01-30T09:45:00,90,2007-01-30,90
ABC,LB,ABC-01-050,113,S4730275,BASO,Basophils,HEMATOLOGY,0.01,x10(9)/L,0.00,0.30,0.01,0.01,10^9/L,0,0.3,NORMAL,,,,0,SCREENING,2006-10-25T13:05:00,-8,2006-10-25,-8
ABC,LB,ABC-01-050,114,S7196848,BASO,Basophils,HEMATOLOGY,0.04,x10(9)/L,0.00,0.30,0.04,0.04,10^9/L,0,0.3,NORMAL,,,Y,1,DAY 1,2006-11-02T12:33:00,1,2006-11-02,1
ABC,LB,ABC-01-050,115,S8132637,BASO,Basophils,HEMATOLOGY,0.04,x10(9)/L,0.00,0.30,0.04,0.04,10^9/L,0,0.3,NORMAL,,,,2,WEEK 2,2006-11-16T09:42:00,15,2006-11-16,15
ABC,LB,ABC-01-050,116,S6477110,BASO,Basophils,HEMATOLOGY,0.01,x10(9)/L,0.00,0.30,0.01,0.01,10^9/L,0,0.3,NORMAL,,,,6,WEEK 6,2006-12-14T08:03:00,43,2006-12-14,43
ABC,LB,ABC-01-050,117,S5717846,BASO,Basophils,HEMATOLOGY,0.04,x10(9)/L,0.00,0.30,0.04,0.04,10^9/L,0,0.3,NORMAL,,,,12,WEEK 12,2007-01-30T09:45:00,90,2007-01-30,90
ABC,LB,ABC-01-050,118,S4730275,BASOLE,Basophils/Leukocytes,HEMATOLOGY,0.08,%,0,3,0.08,0.08,%,0,3,NORMAL,,,,0,SCREENING,2006-10-25T13:05:00,-8,2006-10-25,-8
ABC,LB,ABC-01-050,119,S7196848,BASOLE,Basophils/Leukocytes,HEMATOLOGY,0.62,%,0,3,0.62,0.62,%,0,3,NORMAL,,,Y,1,DAY 1,2006-11-02T12:33:00,1,2006-11-02,1
ABC,LB,ABC-01-050,120,S8132637,BASOLE,Basophils/Leukocytes,HEMATOLOGY,0.62,%,0,3,0.62,0.62,%,0,3,NORMAL,,,,2,WEEK 2,2006-11-16T09:42:00,15,2006-11-16,15
ABC,LB,ABC-01-050,121,S6477110,BASOLE,Basophils/Leukocytes,HEMATOLOGY,0.18,%,0,3,0.18,0.18,%,0,3,NORMAL,,,,6,WEEK 6,2006-12-14T08:03:00,43,2006-12-14,43
ABC,LB,ABC-01-050,122,S5717846,BASOLE,Basophils/Leukocytes,HEMATOLOGY,1.22,%,0,3,1.22,1.22,%,0,3,NORMAL,,,,12,WEEK 12,2007-01-30T09:45:00,90,2007-01-30,90
ABC,LB,ABC-01-050,123,S4730275,EOS,Eosinophils,HEMATOLOGY,0.31,x10(9)/L,0.05,0.50,0.31,0.31,10^9/L,0.05,0.5,NORMAL,,,,0,SCREENING,2006-10-25T13:05:00,-8,2006-10-25,-8
ABC,LB,ABC-01-050,124,S7196848,EOS,Eosinophils,HEMATOLOGY,0.33,x10(9)/L,0.05,0.50,0.33,0.33,10^9/L,0.05,0.5,NORMAL,,,Y,1,DAY 1,2006-11-02T12:33:00,1,2006-11-02,1
ABC,LB,ABC-01-050,125,S8132637,EOS,Eosinophils,HEMATOLOGY,0.28,x10(9)/L,0.05,0.50,0.28,0.28,10^9/L,0.05,0.5,NORMAL,,,,2,WEEK 2,2006-11-16T09:42:00,15,2006-11-16,15
ABC,LB,ABC-01-050,126,S6477110,EOS,Eosinophils,HEMATOLOGY,0.44,x10(9)/L,0.05,0.50,0.44,0.44,10^9/L,0.05,0.5,NORMAL,,,,6,WEEK 6,2006-12-14T08:03:00,43,2006-12-14,43
ABC,LB,ABC-01-050,127,S5717846,EOS,Eosinophils,HEMATOLOGY,0.25,x10(9)/L,0.05,0.50,0.25,0.25,10^9/L,0.05,0.5,NORMAL,,,,12,WEEK 12,2007-01-30T09:45:00,90,2007-01-30,90
ABC,LB,ABC-01-050,128,S4730275,EOSLE,Eosinophils/Leukocytes,HEMATOLOGY,3.65,%,0,7,3.65,3.65,%,0,7,NORMAL,,,,0,SCREENING,2006-10-25T13:05:00,-8,2006-10-25,-8
ABC,LB,ABC-01-050,129,S7196848,EOSLE,Eosinophils/Leukocytes,HEMATOLOGY,4.92,%,0,7,4.92,4.92,%,0,7,NORMAL,,,Y,1,DAY 1,2006-11-02T12:33:00,1,2006-11-02,1
ABC,LB,ABC-01-050,130,S8132637,EOSLE,Eosinophils/Leukocytes,HEMATOLOGY,4.45,%,0,7,4.45,4.45,%,0,7,NORMAL,,,,2,WEEK 2,2006-11-16T09:42:00,15,2006-11-16,15
ABC,LB,ABC-01-050,131,S6477110,EOSLE,Eosinophils/Leukocytes,HEMATOLOGY,7.57,%,0,7,7.57,7.57,%,0,7,HIGH,,,,6,WEEK 6,2006-12-14T08:03:00,43,2006-12-14,43
ABC,LB,ABC-01-050,132,S5717846,EOSLE,Eosinophils/Leukocytes,HEMATOLOGY,7.19,%,0,7,7.19,7.19,%,0,7,HIGH,,,,12,WEEK 12,2007-01-30T09:45:00,90,2007-01-30,90
ABC,LB,ABC-01-050,133,S4730275,HCT,Hematocrit,HEMATOLOGY,45.3,%,38.8,50.0,45.3,45.3,%,38.8,50,NORMAL,,,,0,SCREENING,2006-10-25T13:05:00,-8,2006-10-25,-8
ABC,LB,ABC-01-050,134,S7196848,HCT,Hematocrit,HEMATOLOGY,44.6,%,38.8,50.0,44.6,44.6,%,38.8,50,NORMAL,,,Y,1,DAY 1,2006-11-02T12:33:00,1,2006-11-02,1
ABC,LB,ABC-01-050,135,S8132637,HCT,Hematocrit,HEMATOLOGY,41.7,%,38.8,50.0,41.7,41.7,%,38.8,50,NORMAL,,,,2,WEEK 2,2006-11-16T09:42:00,15,2006-11-16,15
ABC,LB,ABC-01-050,136,S6477110,HCT,Hematocrit,HEMATOLOGY,43.6,%,38.8,50.0,43.6,43.6,%,38.8,50,NORMAL,,,,6,WEEK 6,2006-12-14T08:03:00,43,2006-12-14,43
ABC,LB,ABC-01-050,137,S5717846,HCT,Hematocrit,HEMATOLOGY,42.6,%,38.8,50.0,42.6,42.6,%,38.8,50,NORMAL,,,,12,WEEK 12,2007-01-30T09:45:00,90,2007-01-30,90
ABC,LB,ABC-01-050,138,S4730275,HGB,Hemoglobin,HEMATOLOGY,16.0,g/dL,13.5,17.5,16.0,16,g/dL,13.5,17.5,NORMAL,,,,0,SCREENING,2006-10-25T13:05:00,-8,2006-10-25,-8
ABC,LB,ABC-01-050,139,S7196848,HGB,Hemoglobin,HEMATOLOGY,15.7,g/dL,13.5,17.5,15.7,15.7,g/dL,13.5,17.5,NORMAL,,,Y,1,DAY 1,2006-11-02T12:33:00,1,2006-11-02,1
ABC,LB,ABC-01-050,140,S8132637,HGB,Hemoglobin,HEMATOLOGY,14.7,g/dL,13.5,17.5,14.7,14.7,g/dL,13.5,17.5,NORMAL,,,,2,WEEK 2,2006-11-16T09:42:00,15,2006-11-16,15
ABC,LB,ABC-01-050,141,S6477110,HGB,Hemoglobin,HEMATOLOGY,15.5,g/dL,13.5,17.5,15.5,15.5,g/dL,13.5,17.5,NORMAL,,,,6,WEEK 6,2006-12-14T08:03:00,43,2006-12-14,43
ABC,LB,ABC-01-050,142,S5717846,HGB,Hemoglobin,HEMATOLOGY,15.2,g/dL,13.5,17.5,15.2,15.2,g/dL,13.5,17.5,NORMAL,,,,12,WEEK 12,2007-01-30T09:45:00,90,2007-01-30,90
ABC,LB,ABC-01-050,143,S4730275,LYM,Lymphocytes,HEMATOLOGY,1.25,x10(9)/L,0.90,2.90,1.25,1.25,10^9/L,0.9,2.9,NORMAL,,,,0,SCREENING,2006-10-25T13:05:00,-8,2006-10-25,-8
ABC,LB,ABC-01-050,144,S7196848,LYM,Lymphocytes,HEMATOLOGY,1.23,x10(9)/L,0.90,2.90,1.23,1.23,10^9/L,0.9,2.9,NORMAL,,,Y,1,DAY 1,2006-11-02T12:33:00,1,2006-11-02,1
ABC,LB,ABC-01-050,145,S8132637,LYM,Lymphocytes,HEMATOLOGY,1.30,x10(9)/L,0.90,2.90,1.30,1.3,10^9/L,0.9,2.9,NORMAL,,,,2,WEEK 2,2006-11-16T09:42:00,15,2006-11-16,15
ABC,LB,ABC-01-050,146,S6477110,LYM,Lymphocytes,HEMATOLOGY,1.30,x10(9)/L,0.90,2.90,1.30,1.3,10^9/L,0.9,2.9,NORMAL,,,,6,WEEK 6,2006-12-14T08:03:00,43,2006-12-14,43
ABC,LB,ABC-01-050,147,S5717846,LYM,Lymphocytes,HEMATOLOGY,1.20,x10(9)/L,0.90,2.90,1.20,1.2,10^9/L,0.9,2.9,NORMAL,,,,12,WEEK 12,2007-01-30T09:45:00,90,2007-01-30,90
ABC,LB,ABC-01-050,148,S4730275,LYMLE,Lymphocytes/Leukocytes,HEMATOLOGY,14.74,%,17,42,14.74,14.74,%,17,42,LOW,,,,0,SCREENING,2006-10-25T13:05:00,-8,2006-10-25,-8
ABC,LB,ABC-01-050,149,S7196848,LYMLE,Lymphocytes/Leukocytes,HEMATOLOGY,18.30,%,17,42,18.30,18.3,%,17,42,NORMAL,,,Y,1,DAY 1,2006-11-02T12:33:00,1,2006-11-02,1
ABC,LB,ABC-01-050,150,S8132637,LYMLE,Lymphocytes/Leukocytes,HEMATOLOGY,20.80,%,17,42,20.80,20.8,%,17,42,NORMAL,,,,2,WEEK 2,2006-11-16T09:42:00,15,2006-11-16,15
ABC,LB,ABC-01-050,151,S6477110,LYMLE,Lymphocytes/Leukocytes,HEMATOLOGY,22.31,%,17,42,22.31,22.31,%,17,42,NORMAL,,,,6,WEEK 6,2006-12-14T08:03:00,43,2006-12-14,43
ABC,LB,ABC-01-050,152,S5717846,LYMLE,Lymphocytes/Leukocytes,HEMATOLOGY,33.98,%,17,42,33.98,33.98,%,17,42,NORMAL,,,,12,WEEK 12,2007-01-30T09:45:00,90,2007-01-30,90
ABC,LB,ABC-01-050,153,S4730275,MCH,Ery. Mean Corpuscular Hemoglobin,HEMATOLOGY,31.9,pg,27.4,33.0,31.9,31.9,pg,27.4,33,NORMAL,,,,0,SCREENING,2006-10-25T13:05:00,-8,2006-10-25,-8
ABC,LB,ABC-01-050,154,S7196848,MCH,Ery. Mean Corpuscular Hemoglobin,HEMATOLOGY,32.3,pg,27.4,33.0,32.3,32.3,pg,27.4,33,NORMAL,,,Y,1,DAY 1,2006-11-02T12:33:00,1,2006-11-02,1
ABC,LB,ABC-01-050,155,S8132637,MCH,Ery. Mean Corpuscular Hemoglobin,HEMATOLOGY,31.7,pg,27.4,33.0,31.7,31.7,pg,27.4,33,NORMAL,,,,2,WEEK 2,2006-11-16T09:42:00,15,2006-11-16,15
ABC,LB,ABC-01-050,156,S6477110,MCH,Ery. Mean Corpuscular Hemoglobin,HEMATOLOGY,32.4,pg,27.4,33.0,32.4,32.4,pg,27.4,33,NORMAL,,,,6,WEEK 6,2006-12-14T08:03:00,43,2006-12-14,43
ABC,LB,ABC-01-050,157,S5717846,MCH,Ery. Mean Corpuscular Hemoglobin,HEMATOLOGY,32.6,pg,27.4,33.0,32.6,32.6,pg,27.4,33,NORMAL,,,,12,WEEK 12,2007-01-30T09:45:00,90,2007-01-30,90
ABC,LB,ABC-01-050,158,S4730275,MCHC,Ery. Mean Corpuscular HGB Concentration,HEMATOLOGY,35.3,g/dL,33.3,35.2,35.3,35.3,g/dL,33.3,35.2,HIGH,,,,0,SCREENING,2006-10-25T13:05:00,-8,2006-10-25,-8
ABC,LB,ABC-01-050,159,S7196848,MCHC,Ery. Mean Corpuscular HGB Concentration,HEMATOLOGY,35.3,g/dL,33.3,35.2,35.3,35.3,g/dL,33.3,35.2,HIGH,,,Y,1,DAY 1,2006-11-02T12:33:00,1,2006-11-02,1
ABC,LB,ABC-01-050,160,S8132637,MCHC,Ery. Mean Corpuscular HGB Concentration,HEMATOLOGY,35.4,g/dL,33.3,35.2,35.4,35.4,g/dL,33.3,35.2,HIGH,,,,2,WEEK 2,2006-11-16T09:42:00,15,2006-11-16,15
ABC,LB,ABC-01-050,161,S6477110,MCHC,Ery. Mean Corpuscular HGB Concentration,HEMATOLOGY,35.6,g/dL,33.3,35.2,35.6,35.6,g/dL,33.3,35.2,HIGH,,,,6,WEEK 6,2006-12-14T08:03:00,43,2006-12-14,43
ABC,LB,ABC-01-050,162,S5717846,MCHC,Ery. Mean Corpuscular HGB Concentration,HEMATOLOGY,35.7,g/dL,33.3,35.2,35.7,35.7,g/dL,33.3,35.2,HIGH,,,,12,WEEK 12,2007-01-30T09:45:00,90,2007-01-30,90
ABC,LB,ABC-01-050,163,S4730275,MCV,Ery. Mean Corpuscular Volume,HEMATOLOGY,90.4,fL,81.2,95.1,90.4,90.4,fL,81.2,95.1,NORMAL,,,,0,SCREENING,2006-10-25T13:05:00,-8,2006-10-25,-8
ABC,LB,ABC-01-050,164,S7196848,MCV,Ery. Mean Corpuscular Volume,HEMATOLOGY,91.6,fL,81.2,95.1,91.6,91.6,fL,81.2,95.1,NORMAL,,,Y,1,DAY 1,2006-11-02T12:33:00,1,2006-11-02,1
ABC,LB,ABC-01-050,165,S8132637,MCV,Ery. Mean Corpuscular Volume,HEMATOLOGY,89.8,fL,81.2,95.1,89.8,89.8,fL,81.2,95.1,NORMAL,,,,2,WEEK 2,2006-11-16T09:42:00,15,2006-11-16,15
ABC,LB,ABC-01-050,166,S6477110,MCV,Ery. Mean Corpuscular Volume,HEMATOLOGY,91.1,fL,81.2,95.1,91.1,91.1,fL,81.2,95.1,NORMAL,,,,6,WEEK 6,2006-12-14T08:03:00,43,2006-12-14,43
ABC,LB,ABC-01-050,167,S5717846,MCV,Ery. Mean Corpuscular Volume,HEMATOLOGY,91.4,fL,81.2,95.1,91.4,91.4,fL,81.2,95.1,NORMAL,,,,12,WEEK 12,2007-01-30T09:45:00,90,2007-01-30,90
ABC,LB,ABC-01-050,168,S4730275,MONO,Monocytes,HEMATOLOGY,0.60,x10(9)/L,0.30,0.90,0.60,0.6,10^9/L,0.3,0.9,NORMAL,,,,0,SCREENING,2006-10-25T13:05:00,-8,2006-10-25,-8
ABC,LB,ABC-01-050,169,S7196848,MONO,Monocytes,HEMATOLOGY,0.47,x10(9)/L,0.30,0.90,0.47,0.47,10^9/L,0.3,0.9,NORMAL,,,Y,1,DAY 1,2006-11-02T12:33:00,1,2006-11-02,1
ABC,LB,ABC-01-050,170,S8132637,MONO,Monocytes,HEMATOLOGY,0.51,x10(9)/L,0.30,0.90,0.51,0.51,10^9/L,0.3,0.9,NORMAL,,,,2,WEEK 2,2006-11-16T09:42:00,15,2006-11-16,15
ABC,LB,ABC-01-050,171,S6477110,MONO,Monocytes,HEMATOLOGY,0.51,x10(9)/L,0.30,0.90,0.51,0.51,10^9/L,0.3,0.9,NORMAL,,,,6,WEEK 6,2006-12-14T08:03:00,43,2006-12-14,43
ABC,LB,ABC-01-050,172,S5717846,MONO,Monocytes,HEMATOLOGY,0.67,x10(9)/L,0.30,0.90,0.67,0.67,10^9/L,0.3,0.9,NORMAL,,,,12,WEEK 12,2007-01-30T09:45:00,90,2007-01-30,90
ABC,LB,ABC-01-050,173,S4730275,MONOLE,Monocytes/Leukocytes,HEMATOLOGY,7.11,%,4,15,7.11,7.11,%,4,15,NORMAL,,,,0,SCREENING,2006-10-25T13:05:00,-8,2006-10-25,-8
ABC,LB,ABC-01-050,174,S7196848,MONOLE,Monocytes/Leukocytes,HEMATOLOGY,6.92,%,4,15,6.92,6.92,%,4,15,NORMAL,,,Y,1,DAY 1,2006-11-02T12:33:00,1,2006-11-02,1
ABC,LB,ABC-01-050,175,S8132637,MONOLE,Monocytes/Leukocytes,HEMATOLOGY,8.08,%,4,15,8.08,8.08,%,4,15,NORMAL,,,,2,WEEK 2,2006-11-16T09:42:00,15,2006-11-16,15
ABC,LB,ABC-01-050,176,S6477110,MONOLE,Monocytes/Leukocytes,HEMATOLOGY,8.79,%,4,15,8.79,8.79,%,4,15,NORMAL,,,,6,WEEK 6,2006-12-14T08:03:00,43,2006-12-14,43
ABC,LB,ABC-01-050,177,S5717846,MONOLE,Monocytes/Leukocytes,HEMATOLOGY,18.98,%,4,15,18.98,18.98,%,4,15,HIGH,,,,12,WEEK 12,2007-01-30T09:45:00,90,2007-01-30,90
ABC,LB,ABC-01-050,178,S4730275,NEUT,Neutrophils,HEMATOLOGY,6.32,x10(9)/L,1.70,7.00,6.32,6.32,10^9/L,1.7,7,NORMAL,,,,0,SCREENING,2006-10-25T13:05:00,-8,2006-10-25,-8
ABC,LB,ABC-01-050,179,S7196848,NEUT,Neutrophils,HEMATOLOGY,4.66,x10(9)/L,1.70,7.00,4.66,4.66,10^9/L,1.7,7,NORMAL,,,Y,1,DAY 1,2006-11-02T12:33:00,1,2006-11-02,1
ABC,LB,ABC-01-050,180,S8132637,NEUT,Neutrophils,HEMATOLOGY,4.14,x10(9)/L,1.70,7.00,4.14,4.14,10^9/L,1.7,7,NORMAL,,,,2,WEEK 2,2006-11-16T09:42:00,15,2006-11-16,15
ABC,LB,ABC-01-050,181,S6477110,NEUT,Neutrophils,HEMATOLOGY,3.57,x10(9)/L,1.70,7.00,3.57,3.57,10^9/L,1.7,7,NORMAL,,,,6,WEEK 6,2006-12-14T08:03:00,43,2006-12-14,43
ABC,LB,ABC-01-050,182,S5717846,NEUT,Neutrophils,HEMATOLOGY,1.36,x10(9)/L,1.70,7.00,1.36,1.36,10^9/L,1.7,7,LOW,,,,12,WEEK 12,2007-01-30T09:45:00,90,2007-01-30,90
ABC,LB,ABC-01-050,183,S4730275,NEUTLE,Neutrophils/Leukocytes,HEMATOLOGY,74.42,%,44,71,74.42,74.42,%,44,71,HIGH,,,,0,SCREENING,2006-10-25T13:05:00,-8,2006-10-25,-8
ABC,LB,ABC-01-050,184,S7196848,NEUTLE,Neutrophils/Leukocytes,HEMATOLOGY,69.24,%,44,71,69.24,69.24,%,44,71,NORMAL,,,Y,1,DAY 1,2006-11-02T12:33:00,1,2006-11-02,1
ABC,LB,ABC-01-050,185,S8132637,NEUTLE,Neutrophils/Leukocytes,HEMATOLOGY,66.05,%,44,71,66.05,66.05,%,44,71,NORMAL,,,,2,WEEK 2,2006-11-16T09:42:00,15,2006-11-16,15
ABC,LB,ABC-01-050,186,S6477110,NEUTLE,Neutrophils/Leukocytes,HEMATOLOGY,61.15,%,44,71,61.15,61.15,%,44,71,NORMAL,,,,6,WEEK 6,2006-12-14T08:03:00,43,2006-12-14,43
ABC,LB,ABC-01-050,187,S5717846,NEUTLE,Neutrophils/Leukocytes,HEMATOLOGY,38.63,%,44,71,38.63,38.63,%,44,71,LOW,,,,12,WEEK 12,2007-01-30T09:45:00,90,2007-01-30,90
ABC,LB,ABC-01-050,188,S4730275,PLAT,Platelets,HEMATOLOGY,212,x10(9)/L,150,450,212,212,10^9/L,150,450,NORMAL,,,,0,SCREENING,2006-10-25T13:05:00,-8,2006-10-25,-8
ABC,LB,ABC-01-050,189,S7196848,PLAT,Platelets,HEMATOLOGY,230,x10(9)/L,150,450,230,230,10^9/L,150,450,NORMAL,,,Y,1,DAY 1,2006-11-02T12:33:00,1,2006-11-02,1
ABC,LB,ABC-01-050,190,S8132637,PLAT,Platelets,HEMATOLOGY,215,x10(9)/L,150,450,215,215,10^9/L,150,450,NORMAL,,,,2,WEEK 2,2006-11-16T09:42:00,15,2006-11-16,15
ABC,LB,ABC-01-050,191,S6477110,PLAT,Platelets,HEMATOLOGY,209,x10(9)/L,150,450,209,209,10^9/L,150,450,NORMAL,,,,6,WEEK 6,2006-12-14T08:03:00,43,2006-12-14,43
ABC,LB,ABC-01-050,192,S5717846,PLAT,Platelets,HEMATOLOGY,176,x10(9)/L,150,450,176,176,10^9/L,150,450,NORMAL,,,,12,WEEK 12,2007-01-30T09:45:00,90,2007-01-30,90
ABC,LB,ABC-01-050,193,S4730275,RBC,Erythrocytes,HEMATOLOGY,5.01,x10(12)/L,4.32,5.72,5.01,5.01,10^12/L,4.32,5.72,NORMAL,,,,0,SCREENING,2006-10-25T13:05:00,-8,2006-10-25,-8
ABC,LB,ABC-01-050,194,S7196848,RBC,Erythrocytes,HEMATOLOGY,4.87,x10(12)/L,4.32,5.72,4.87,4.87,10^12/L,4.32,5.72,NORMAL,,,Y,1,DAY 1,2006-11-02T12:33:00,1,2006-11-02,1
ABC,LB,ABC-01-050,195,S8132637,RBC,Erythrocytes,HEMATOLOGY,4.64,x10(12)/L,4.32,5.72,4.64,4.64,10^12/L,4.32,5.72,NORMAL,,,,2,WEEK 2,2006-11-16T09:42:00,15,2006-11-16,15
ABC,LB,ABC-01-050,196,S6477110,RBC,Erythrocytes,HEMATOLOGY,4.79,x10(12)/L,4.32,5.72,4.79,4.79,10^12/L,4.32,5.72,NORMAL,,,,6,WEEK 6,2006-12-14T08:03:00,43,2006-12-14,43
ABC,LB,ABC-01-050,197,S5717846,RBC,Erythrocytes,HEMATOLOGY,4.66,x10(12)/L,4.32,5.72,4.66,4.66,10^12/L,4.32,5.72,NORMAL,,,,12,WEEK 12,2007-01-30T09:45:00,90,2007-01-30,90
ABC,LB,ABC-01-050,198,S4730275,RDW,Erythrocytes Distribution Width,HEMATOLOGY,12.8,%,11.8,15.6,12.8,12.8,%,11.8,15.6,NORMAL,,,,0,SCREENING,2006-10-25T13:05:00,-8,2006-10-25,-8
ABC,LB,ABC-01-050,199,S7196848,RDW,Erythrocytes Distribution Width,HEMATOLOGY,13.0,%,11.8,15.6,13.0,13,%,11.8,15.6,NORMAL,,,Y,1,DAY 1,2006-11-02T12:33:00,1,2006-11-02,1
ABC,LB,ABC-01-050,200,S8132637,RDW,Erythrocytes Distribution Width,HEMATOLOGY,13.1,%,11.8,15.6,13.1,13.1,%,11.8,15.6,NORMAL,,,,2,WEEK 2,2006-11-16T09:42:00,15,2006-11-16,15
ABC,LB,ABC-01-050,201,S6477110,RDW,Erythrocytes Distribution Width,HEMATOLOGY,13.2,%,11.8,15.6,13.2,13.2,%,11.8,15.6,NORMAL,,,,6,WEEK 6,2006-12-14T08:03:00,43,2006-12-14,43
ABC,LB,ABC-01-050,202,S5717846,RDW,Erythrocytes Distribution Width,HEMATOLOGY,12.6,%,11.8,15.6,12.6,12.6,%,11.8,15.6,NORMAL,,,,12,WEEK 12,2007-01-30T09:45:00,90,2007-01-30,90
ABC,LB,ABC-01-050,203,S4730275,WBC,Leukocytes,HEMATOLOGY,8.5,x10(9)/L,3.5,10.5,8.5,8.5,10^9/L,3.5,10.5,NORMAL,,,,0,SCREENING,2006-10-25T13:05:00,-8,2006-10-25,-8
ABC,LB,ABC-01-050,204,S7196848,WBC,Leukocytes,HEMATOLOGY,6.7,x10(9)/L,3.5,10.5,6.7,6.7,10^9/L,3.5,10.5,NORMAL,,,Y,1,DAY 1,2006-11-02T12:33:00,1,2006-11-02,1
ABC,LB,ABC-01-050,205,S8132637,WBC,Leukocytes,HEMATOLOGY,6.3,x10(9)/L,3.5,10.5,6.3,6.3,10^9/L,3.5,10.5,NORMAL,,,,2,WEEK 2,2006-11-16T09:42:00,15,2006-11-16,15
ABC,LB,ABC-01-050,206,S6477110,WBC,Leukocytes,HEMATOLOGY,5.8,x10(9)/L,3.5,10.5,5.8,5.8,10^9/L,3.5,10.5,NORMAL,,,,6,WEEK 6,2006-12-14T08:03:00,43,2006-12-14,43
ABC,LB,ABC-01-050,207,S5717846,WBC,Leukocytes,HEMATOLOGY,3.5,x10(9)/L,3.5,10.5,3.5,3.5,10^9/L,3.5,10.5,NORMAL,,,,12,WEEK 12,2007-01-30T09:45:00,90,2007-01-30,90
ABC,LB,ABC-01-050,208,S1297478,BILI,Bilirubin,URINALYSIS,NEGATIVE,,,,NEGATIVE,,,,,,,,,0,SCREENING,2006-10-25T13:30:00,-8,2006-10-25,-8
ABC,LB,ABC-01-050,209,S3095064,BILI,Bilirubin,URINALYSIS,NEGATIVE,,,,NEGATIVE,,,,,,,,Y,1,DAY 1,2006-11-02T13:30:00,1,2006-11-02,1
ABC,LB,ABC-01-050,210,S0041402,BILI,Bilirubin,URINALYSIS,NEGATIVE,,,,NEGATIVE,,,,,,,,,2,WEEK 2,2006-11-16T10:42:00,15,2006-11-16,15
ABC,LB,ABC-01-050,211,S2777868,BILI,Bilirubin,URINALYSIS,NEGATIVE,,,,NEGATIVE,,,,,,,,,6,WEEK 6,2006-12-14T09:34:00,43,2006-12-14,43
ABC,LB,ABC-01-050,212,S6955193,BILI,Bilirubin,URINALYSIS,NEGATIVE,,,,NEGATIVE,,,,,,,,,12,WEEK 12,2007-01-30T10:00:00,90,2007-01-30,90
ABC,LB,ABC-01-050,213,S4063521,CACONC,Calcium Concentration,URINALYSIS,130.0227986,mg/L,,,130.022799,130.022799,mg/L,,,,,,,0,SCREENING,2006-10-25T13:30:00,-8,2006-10-25,-8
ABC,LB,ABC-01-050,214,S9540213,CACONC,Calcium Concentration,URINALYSIS,103,mg/L,,,103.000000,103,mg/L,,,,,,Y,1,DAY 1,2006-11-02T13:30:00,1,2006-11-02,1
ABC,LB,ABC-01-050,215,S5701733,CACONC,Calcium Concentration,URINALYSIS,158,mg/L,,,158.000000,158,mg/L,,,,,,,2,WEEK 2,2006-11-16T10:42:00,15,2006-11-16,15
ABC,LB,ABC-01-050,216,S0559070,CACONC,Calcium Concentration,URINALYSIS,184,mg/L,,,184.000000,184,mg/L,,,,,,,6,WEEK 6,2006-12-14T09:34:00,43,2006-12-14,43
ABC,LB,ABC-01-050,217,S6818433,CACONC,Calcium Concentration,URINALYSIS,172,mg/L,,,172.000000,172,mg/L,,,,,,,12,WEEK 12,2007-01-30T10:00:00,90,2007-01-30,90
ABC,LB,ABC-01-050,218,S4063521,CACREAT,Calcium/Creatinine,URINALYSIS,0.07,,,,0.07,0.07,,,,,,,,0,SCREENING,2006-10-25T13:30:00,-8,2006-10-25,-8
ABC,LB,ABC-01-050,219,S9540213,CACREAT,Calcium/Creatinine,URINALYSIS,0.06,,,,0.06,0.06,,,,,,,Y,1,DAY 1,2006-11-02T13:30:00,1,2006-11-02,1
ABC,LB,ABC-01-050,220,S5701733,CACREAT,Calcium/Creatinine,URINALYSIS,0.10,,,,0.10,0.1,,,,,,,,2,WEEK 2,2006-11-16T10:42:00,15,2006-11-16,15
ABC,LB,ABC-01-050,221,S0559070,CACREAT,Calcium/Creatinine,URINALYSIS,0.18,,,,0.18,0.18,,,,,,,,6,WEEK 6,2006-12-14T09:34:00,43,2006-12-14,43
ABC,LB,ABC-01-050,222,S6818433,CACREAT,Calcium/Creatinine,URINALYSIS,0.17,,,,0.17,0.17,,,,,,,,12,WEEK 12,2007-01-30T10:00:00,90,2007-01-30,90
ABC,LB,ABC-01-050,223,S4063521,CREACONC,Creatinine Concentration,URINALYSIS,194,mg/dL,,,194,194,mg/dL,,,,,,,0,SCREENING,2006-10-25T13:30:00,-8,2006-10-25,-8
ABC,LB,ABC-01-050,224,S9540213,CREACONC,Creatinine Concentration,URINALYSIS,170,mg/dL,,,170,170,mg/dL,,,,,,Y,1,DAY 1,2006-11-02T13:30:00,1,2006-11-02,1
ABC,LB,ABC-01-050,225,S5701733,CREACONC,Creatinine Concentration,URINALYSIS,165,mg/dL,,,165,165,mg/dL,,,,,,,2,WEEK 2,2006-11-16T10:42:00,15,2006-11-16,15
ABC,LB,ABC-01-050,226,S0559070,CREACONC,Creatinine Concentration,URINALYSIS,102,mg/dL,,,102,102,mg/dL,,,,,,,6,WEEK 6,2006-12-14T09:34:00,43,2006-12-14,43
ABC,LB,ABC-01-050,227,S6818433,CREACONC,Creatinine Concentration,URINALYSIS,101,mg/dL,,,101,101,mg/dL,,,,,,,12,WEEK 12,2007-01-30T10:00:00,90,2007-01-30,90
ABC,LB,ABC-01-050,228,S1297478,GLUC,Glucose,URINALYSIS,NEGATIVE,g/dL,,,NEGATIVE,,g/dL,,,,,,,0,SCREENING,2006-10-25T13:30:00,-8,2006-10-25,-8
ABC,LB,ABC-01-050,229,S3095064,GLUC,Glucose,URINALYSIS,NEGATIVE,g/dL,,,NEGATIVE,,g/dL,,,,,,Y,1,DAY 1,2006-11-02T13:30:00,1,2006-11-02,1
ABC,LB,ABC-01-050,230,S0041402,GLUC,Glucose,URINALYSIS,NEGATIVE,g/dL,,,NEGATIVE,,g/dL,,,,,,,2,WEEK 2,2006-11-16T10:42:00,15,2006-11-16,15
ABC,LB,ABC-01-050,231,S2777868,GLUC,Glucose,URINALYSIS,NEGATIVE,g/dL,,,NEGATIVE,,g/dL,,,,,,,6,WEEK 6,2006-12-14T09:34:00,43,2006-12-14,43
ABC,LB,ABC-01-050,232,S6955193,GLUC,Glucose,URINALYSIS,NEGATIVE,g/dL,,,NEGATIVE,,g/dL,,,,,,,12,WEEK 12,2007-01-30T10:00:00,90,2007-01-30,90
ABC,LB,ABC-01-050,233,,HCG,Choriogonadotropin Beta,URINALYSIS,,,,,,,,,,,NOT DONE,Subject is male or female who is post-menopausal or has undergone successful surgical sterilization,,4,WEEK 4,,,2006-11-30,29
ABC,LB,ABC-01-050,234,,HCG,Choriogonadotropin Beta,URINALYSIS,,,,,,,,,,,NOT DONE,Subject is male or female who is post-menopausal or has undergone successful surgical sterilization,,8,WEEK 8,,,2006-12-28,57
ABC,LB,ABC-01-050,235,,HCG,Choriogonadotropin Beta,URINALYSIS,,,,,,,,,,,NOT DONE,Subject is male or female who is post-menopausal or has undergone successful surgical sterilization,,12,WEEK 12,,,2007-01-30,90
ABC,LB,ABC-01-050,236,S1297478,HGB,Hemoglobin,URINALYSIS,NEGATIVE,,,,NEGATIVE,,,,,,,,,0,SCREENING,2006-10-25T13:30:00,-8,2006-10-25,-8
ABC,LB,ABC-01-050,237,S3095064,HGB,Hemoglobin,URINALYSIS,NEGATIVE,,,,NEGATIVE,,,,,,,,Y,1,DAY 1,2006-11-02T13:30:00,1,2006-11-02,1
ABC,LB,ABC-01-050,238,S0041402,HGB,Hemoglobin,URINALYSIS,NEGATIVE,,,,NEGATIVE,,,,,,,,,2,WEEK 2,2006-11-16T10:42:00,15,2006-11-16,15
ABC,LB,ABC-01-050,239,S2777868,HGB,Hemoglobin,URINALYSIS,NEGATIVE,,,,NEGATIVE,,,,,,,,,6,WEEK 6,2006-12-14T09:34:00,43,2006-12-14,43
ABC,LB,ABC-01-050,240,S6955193,HGB,Hemoglobin,URINALYSIS,NEGATIVE,,,,NEGATIVE,,,,,,,,,12,WEEK 12,2007-01-30T10:00:00,90,2007-01-30,90
ABC,LB,ABC-01-050,241,S1297478,KETONES,Ketones,URINALYSIS,NEGATIVE,,,,NEGATIVE,,,,,,,,,0,SCREENING,2006-10-25T13:30:00,-8,2006-10-25,-8
ABC,LB,ABC-01-050,242,S3095064,KETONES,Ketones,URINALYSIS,NEGATIVE,,,,NEGATIVE,,,,,,,,Y,1,DAY 1,2006-11-02T13:30:00,1,2006-11-02,1
ABC,LB,ABC-01-050,243,S0041402,KETONES,Ketones,URINALYSIS,TRACE,,,,TRACE,,,,,,,,,2,WEEK 2,2006-11-16T10:42:00,15,2006-11-16,15
ABC,LB,ABC-01-050,244,S2777868,KETONES,Ketones,URINALYSIS,NEGATIVE,,,,NEGATIVE,,,,,,,,,6,WEEK 6,2006-12-14T09:34:00,43,2006-12-14,43
ABC,LB,ABC-01-050,245,S6955193,KETONES,Ketones,URINALYSIS,NEGATIVE,,,,NEGATIVE,,,,,,,,,12,WEEK 12,2007-01-30T10:00:00,90,2007-01-30,90
ABC,LB,ABC-01-050,246,S1297478,MICRO,Microscopy,URINALYSIS,NORMAL,,,,NORMAL,,,,,,,,,0,SCREENING,2006-10-25T13:30:00,-8,2006-10-25,-8
ABC,LB,ABC-01-050,247,S3095064,MICRO,Microscopy,URINALYSIS,NORMAL,,,,NORMAL,,,,,,,,Y,1,DAY 1,2006-11-02T13:30:00,1,2006-11-02,1
ABC,LB,ABC-01-050,248,S0041402,MICRO,Microscopy,URINALYSIS,NORMAL,,,,NORMAL,,,,,,,,,2,WEEK 2,2006-11-16T10:42:00,15,2006-11-16,15
ABC,LB,ABC-01-050,249,S2777868,MICRO,Microscopy,URINALYSIS,NORMAL,,,,NORMAL,,,,,,,,,6,WEEK 6,2006-12-14T09:34:00,43,2006-12-14,43
ABC,LB,ABC-01-050,250,S6955193,MICRO,Microscopy,URINALYSIS,NORMAL,,,,NORMAL,,,,,,,,,12,WEEK 12,2007-01-30T10:00:00,90,2007-01-30,90
ABC,LB,ABC-01-050,251,S1297478,NITRITE,Nitrite,URINALYSIS,NEGATIVE,,,,NEGATIVE,,,,,,,,,0,SCREENING,2006-10-25T13:30:00,-8,2006-10-25,-8
ABC,LB,ABC-01-050,252,S3095064,NITRITE,Nitrite,URINALYSIS,NEGATIVE,,,,NEGATIVE,,,,,,,,Y,1,DAY 1,2006-11-02T13:30:00,1,2006-11-02,1
ABC,LB,ABC-01-050,253,S0041402,NITRITE,Nitrite,URINALYSIS,NEGATIVE,,,,NEGATIVE,,,,,,,,,2,WEEK 2,2006-11-16T10:42:00,15,2006-11-16,15
ABC,LB,ABC-01-050,254,S2777868,NITRITE,Nitrite,URINALYSIS,NEGATIVE,,,,NEGATIVE,,,,,,,,,6,WEEK 6,2006-12-14T09:34:00,43,2006-12-14,43
ABC,LB,ABC-01-050,255,S6955193,NITRITE,Nitrite,URINALYSIS,NEGATIVE,,,,NEGATIVE,,,,,,,,,12,WEEK 12,2007-01-30T10:00:00,90,2007-01-30,90
ABC,LB,ABC-01-050,256,S1297478,PH,pH,URINALYSIS,5.0,,,,5.0,5,,,,,,,,0,SCREENING,2006-10-25T13:30:00,-8,2006-10-25,-8
ABC,LB,ABC-01-050,257,S3095064,PH,pH,URINALYSIS,5.0,,,,5.0,5,,,,,,,Y,1,DAY 1,2006-11-02T13:30:00,1,2006-11-02,1
ABC,LB,ABC-01-050,258,S0041402,PH,pH,URINALYSIS,5.0,,,,5.0,5,,,,,,,,2,WEEK 2,2006-11-16T10:42:00,15,2006-11-16,15
ABC,LB,ABC-01-050,259,S2777868,PH,pH,URINALYSIS,5.0,,,,5.0,5,,,,,,,,6,WEEK 6,2006-12-14T09:34:00,43,2006-12-14,43
ABC,LB,ABC-01-050,260,S6955193,PH,pH,URINALYSIS,5.0,,,,5.0,5,,,,,,,,12,WEEK 12,2007-01-30T10:00:00,90,2007-01-30,90
ABC,LB,ABC-01-050,261,S0276946,PHOSCONC,Phosphate Concentration,URINALYSIS,99,mg/dL,,,99.0,99,mg/dL,,,,,,,0,SCREENING,2006-10-25T13:30:00,-8,2006-10-25,-8
ABC,LB,ABC-01-050,262,S9519219,PHOSCONC,Phosphate Concentration,URINALYSIS,83,mg/dL,,,83.0,83,mg/dL,,,,,,Y,1,DAY 1,2006-11-02T13:30:00,1,2006-11-02,1
ABC,LB,ABC-01-050,263,S5783796,PHOSCONC,Phosphate Concentration,URINALYSIS,91,mg/dL,,,91.0,91,mg/dL,,,,,,,2,WEEK 2,2006-11-16T10:42:00,15,2006-11-16,15
ABC,LB,ABC-01-050,264,S0423003,PHOSCONC,Phosphate Concentration,URINALYSIS,44,mg/dL,,,44.0,44,mg/dL,,,,,,,6,WEEK 6,2006-12-14T09:34:00,43,2006-12-14,43
ABC,LB,ABC-01-050,265,S2060913,PHOSCONC,Phosphate Concentration,URINALYSIS,60,mg/dL,,,60.0,60,mg/dL,,,,,,,12,WEEK 12,2007-01-30T10:00:00,90,2007-01-30,90
ABC,LB,ABC-01-050,266,S1297478,PROT,Protein,URINALYSIS,NEGATIVE,,,,NEGATIVE,,,,,,,,,0,SCREENING,2006-10-25T13:30:00,-8,2006-10-25,-8
ABC,LB,ABC-01-050,267,S3095064,PROT,Protein,URINALYSIS,NEGATIVE,,,,NEGATIVE,,,,,,,,Y,1,DAY 1,2006-11-02T13:30:00,1,2006-11-02,1
ABC,LB,ABC-01-050,268,S0041402,PROT,Protein,URINALYSIS,NEGATIVE,,,,NEGATIVE,,,,,,,,,2,WEEK 2,2006-11-16T10:42:00,15,2006-11-16,15
ABC,LB,ABC-01-050,269,S2777868,PROT,Protein,URINALYSIS,NEGATIVE,,,,NEGATIVE,,,,,,,,,6,WEEK 6,2006-12-14T09:34:00,43,2006-12-14,43
ABC,LB,ABC-01-050,270,S6955193,PROT,Protein,URINALYSIS,NEGATIVE,,,,NEGATIVE,,,,,,,,,12,WEEK 12,2007-01-30T10:00:00,90,2007-01-30,90
ABC,LB,ABC-01-050,271,S1297478,SPGRAV,Specific Gravity,URINALYSIS,1.025,,,,1.025,1.025,,,,,,,,0,SCREENING,2006-10-25T13:30:00,-8,2006-10-25,-8
ABC,LB,ABC-01-050,272,S3095064,SPGRAV,Specific Gravity,URINALYSIS,1.020,,,,1.020,1.02,,,,,,,Y,1,DAY 1,2006-11-02T13:30:00,1,2006-11-02,1
ABC,LB,ABC-01-050,273,S0041402,SPGRAV,Specific Gravity,URINALYSIS,1.025,,,,1.025,1.025,,,,,,,,2,WEEK 2,2006-11-16T10:42:00,15,2006-11-16,15
ABC,LB,ABC-01-050,274,S2777868,SPGRAV,Specific Gravity,URINALYSIS,1.020,,,,1.020,1.02,,,,,,,,6,WEEK 6,2006-12-14T09:34:00,43,2006-12-14,43
ABC,LB,ABC-01-050,275,S6955193,SPGRAV,Specific Gravity,URINALYSIS,1.020,,,,1.020,1.02,,,,,,,,12,WEEK 12,2007-01-30T10:00:00,90,2007-01-30,90
ABC,LB,ABC-01-050,276,S1297478,UROBIL,Urobilinogen,URINALYSIS,NORMAL,,,,NORMAL,,,,,,,,,0,SCREENING,2006-10-25T13:30:00,-8,2006-10-25,-8
ABC,LB,ABC-01-050,277,S3095064,UROBIL,Urobilinogen,URINALYSIS,NORMAL,,,,NORMAL,,,,,,,,Y,1,DAY 1,2006-11-02T13:30:00,1,2006-11-02,1
ABC,LB,ABC-01-050,278,S0041402,UROBIL,Urobilinogen,URINALYSIS,NORMAL,,,,NORMAL,,,,,,,,,2,WEEK 2,2006-11-16T10:42:00,15,2006-11-16,15
ABC,LB,ABC-01-050,279,S2777868,UROBIL,Urobilinogen,URINALYSIS,NORMAL,,,,NORMAL,,,,,,,,,6,WEEK 6,2006-12-14T09:34:00,43,2006-12-14,43
ABC,LB,ABC-01-050,280,S6955193,UROBIL,Urobilinogen,URINALYSIS,NORMAL,,,,NORMAL,,,,,,,,,12,WEEK 12,2007-01-30T10:00:00,90,2007-01-30,90
ABC,LB,ABC-01-051,1,S0061233,ALB,Albumin,CHEMISTRY,4.4,g/dL,3.5,5.0,4.4,4.4,g/dL,3.5,5,NORMAL,,,,0,SCREENING,2006-10-25T13:02:00,-8,2006-10-25,-8
ABC,LB,ABC-01-051,2,S3646015,ALB,Albumin,CHEMISTRY,4.6,g/dL,3.5,5.0,4.6,4.6,g/dL,3.5,5,NORMAL,,,Y,1,DAY 1,2006-11-02T12:30:00,1,2006-11-02,1
ABC,LB,ABC-01-051,3,S8642171,ALB,Albumin,CHEMISTRY,4.6,g/dL,3.5,5.0,4.6,4.6,g/dL,3.5,5,NORMAL,,,,2,WEEK 2,2006-11-16T09:39:00,15,2006-11-16,15
ABC,LB,ABC-01-051,4,S2411728,ALB,Albumin,CHEMISTRY,4.6,g/dL,3.5,5.0,4.6,4.6,g/dL,3.5,5,NORMAL,,,,6,WEEK 6,2006-12-14T08:14:00,43,2006-12-14,43
ABC,LB,ABC-01-051,5,S8280851,ALB,Albumin,CHEMISTRY,4.6,g/dL,3.5,5.0,4.6,4.6,g/dL,3.5,5,NORMAL,,,,12,WEEK 12,2007-01-30T11:00:00,90,2007-01-30,90
ABC,LB,ABC-01-051,6,S0061233,ALP,Alkaline Phosphatase,CHEMISTRY,61,U/L,45,115,61,61,U/L,45,115,NORMAL,,,,0,SCREENING,2006-10-25T13:02:00,-8,2006-10-25,-8
ABC,LB,ABC-01-051,7,S3646015,ALP,Alkaline Phosphatase,CHEMISTRY,65,U/L,45,115,65,65,U/L,45,115,NORMAL,,,Y,1,DAY 1,2006-11-02T12:30:00,1,2006-11-02,1
ABC,LB,ABC-01-051,8,S8642171,ALP,Alkaline Phosphatase,CHEMISTRY,66,U/L,45,115,66,66,U/L,45,115,NORMAL,,,,2,WEEK 2,2006-11-16T09:39:00,15,2006-11-16,15
ABC,LB,ABC-01-051,9,S2411728,ALP,Alkaline Phosphatase,CHEMISTRY,63,U/L,45,115,63,63,U/L,45,115,NORMAL,,,,6,WEEK 6,2006-12-14T08:14:00,43,2006-12-14,43
ABC,LB,ABC-01-051,10,S8280851,ALP,Alkaline Phosphatase,CHEMISTRY,67,U/L,45,115,67,67,U/L,45,115,NORMAL,,,,12,WEEK 12,2007-01-30T11:00:00,90,2007-01-30,90
ABC,LB,ABC-01-051,11,S0061233,ALT,Alanine Aminotransferase,CHEMISTRY,92,U/L,10,45,92,92,U/L,10,45,HIGH,,,,0,SCREENING,2006-10-25T13:02:00,-8,2006-10-25,-8
ABC,LB,ABC-01-051,12,S3646015,ALT,Alanine Aminotransferase,CHEMISTRY,96,U/L,10,45,96,96,U/L,10,45,HIGH,,,Y,1,DAY 1,2006-11-02T12:30:00,1,2006-11-02,1
ABC,LB,ABC-01-051,13,S8642171,ALT,Alanine Aminotransferase,CHEMISTRY,84,U/L,10,45,84,84,U/L,10,45,HIGH,,,,2,WEEK 2,2006-11-16T09:39:00,15,2006-11-16,15
ABC,LB,ABC-01-051,14,S2411728,ALT,Alanine Aminotransferase,CHEMISTRY,59,U/L,10,45,59,59,U/L,10,45,HIGH,,,,6,WEEK 6,2006-12-14T08:14:00,43,2006-12-14,43
ABC,LB,ABC-01-051,15,S8280851,ALT,Alanine Aminotransferase,CHEMISTRY,64,U/L,10,45,64,64,U/L,10,45,HIGH,,,,12,WEEK 12,2007-01-30T11:00:00,90,2007-01-30,90
ABC,LB,ABC-01-051,16,S0061233,AST,Aspartate Aminotransferase,CHEMISTRY,43,U/L,12,31,43,43,U/L,12,31,HIGH,,,,0,SCREENING,2006-10-25T13:02:00,-8,2006-10-25,-8
ABC,LB,ABC-01-051,17,S3646015,AST,Aspartate Aminotransferase,CHEMISTRY,52,U/L,12,31,52,52,U/L,12,31,HIGH,,,Y,1,DAY 1,2006-11-02T12:30:00,1,2006-11-02,1
ABC,LB,ABC-01-051,18,S8642171,AST,Aspartate Aminotransferase,CHEMISTRY,46,U/L,12,31,46,46,U/L,12,31,HIGH,,,,2,WEEK 2,2006-11-16T09:39:00,15,2006-11-16,15
ABC,LB,ABC-01-051,19,S2411728,AST,Aspartate Aminotransferase,CHEMISTRY,35,U/L,12,31,35,35,U/L,12,31,HIGH,,,,6,WEEK 6,2006-12-14T08:14:00,43,2006-12-14,43
ABC,LB,ABC-01-051,20,S8280851,AST,Aspartate Aminotransferase,CHEMISTRY,36,U/L,12,31,36,36,U/L,12,31,HIGH,,,,12,WEEK 12,2007-01-30T11:00:00,90,2007-01-30,90
ABC,LB,ABC-01-051,21,S0061233,BILI,Bilirubin,CHEMISTRY,0.3,mg/dL,0.1,1.0,0.3,0.3,mg/dL,0.1,1,NORMAL,,,,0,SCREENING,2006-10-25T13:02:00,-8,2006-10-25,-8
ABC,LB,ABC-01-051,22,S3646015,BILI,Bilirubin,CHEMISTRY,0.3,mg/dL,0.1,1.0,0.3,0.3,mg/dL,0.1,1,NORMAL,,,Y,1,DAY 1,2006-11-02T12:30:00,1,2006-11-02,1
ABC,LB,ABC-01-051,23,S8642171,BILI,Bilirubin,CHEMISTRY,0.5,mg/dL,0.1,1.0,0.5,0.5,mg/dL,0.1,1,NORMAL,,,,2,WEEK 2,2006-11-16T09:39:00,15,2006-11-16,15
ABC,LB,ABC-01-051,24,S2411728,BILI,Bilirubin,CHEMISTRY,0.4,mg/dL,0.1,1.0,0.4,0.4,mg/dL,0.1,1,NORMAL,,,,6,WEEK 6,2006-12-14T08:14:00,43,2006-12-14,43
ABC,LB,ABC-01-051,25,S8280851,BILI,Bilirubin,CHEMISTRY,0.3,mg/dL,0.1,1.0,0.3,0.3,mg/dL,0.1,1,NORMAL,,,,12,WEEK 12,2007-01-30T11:00:00,90,2007-01-30,90
ABC,LB,ABC-01-051,26,S0061233,BUN,Blood Urea Nitrogen,CHEMISTRY,15,mg/dL,8,24,15,15,mg/dL,8,24,NORMAL,,,,0,SCREENING,2006-10-25T13:02:00,-8,2006-10-25,-8
ABC,LB,ABC-01-051,27,S3646015,BUN,Blood Urea Nitrogen,CHEMISTRY,18,mg/dL,8,24,18,18,mg/dL,8,24,NORMAL,,,Y,1,DAY 1,2006-11-02T12:30:00,1,2006-11-02,1
ABC,LB,ABC-01-051,28,S8642171,BUN,Blood Urea Nitrogen,CHEMISTRY,19,mg/dL,8,24,19,19,mg/dL,8,24,NORMAL,,,,2,WEEK 2,2006-11-16T09:39:00,15,2006-11-16,15
ABC,LB,ABC-01-051,29,S2411728,BUN,Blood Urea Nitrogen,CHEMISTRY,15,mg/dL,8,24,15,15,mg/dL,8,24,NORMAL,,,,6,WEEK 6,2006-12-14T08:14:00,43,2006-12-14,43
ABC,LB,ABC-01-051,30,S8280851,BUN,Blood Urea Nitrogen,CHEMISTRY,15,mg/dL,8,24,15,15,mg/dL,8,24,NORMAL,,,,12,WEEK 12,2007-01-30T11:00:00,90,2007-01-30,90
ABC,LB,ABC-01-051,31,S0061233,CA,Calcium,CHEMISTRY,9.3,mg/dL,8.9,10.1,9.3,9.3,mg/dL,8.9,10.1,NORMAL,,,,0,SCREENING,2006-10-25T13:02:00,-8,2006-10-25,-8
ABC,LB,ABC-01-051,32,S3646015,CA,Calcium,CHEMISTRY,9.6,mg/dL,8.9,10.1,9.6,9.6,mg/dL,8.9,10.1,NORMAL,,,Y,1,DAY 1,2006-11-02T12:30:00,1,2006-11-02,1
ABC,LB,ABC-01-051,33,S8642171,CA,Calcium,CHEMISTRY,9.6,mg/dL,8.9,10.1,9.6,9.6,mg/dL,8.9,10.1,NORMAL,,,,2,WEEK 2,2006-11-16T09:39:00,15,2006-11-16,15
ABC,LB,ABC-01-051,34,S2411728,CA,Calcium,CHEMISTRY,9.6,mg/dL,8.9,10.1,9.6,9.6,mg/dL,8.9,10.1,NORMAL,,,,6,WEEK 6,2006-12-14T08:14:00,43,2006-12-14,43
ABC,LB,ABC-01-051,35,S8280851,CA,Calcium,CHEMISTRY,9.4,mg/dL,8.9,10.1,9.4,9.4,mg/dL,8.9,10.1,NORMAL,,,,12,WEEK 12,2007-01-30T11:00:00,90,2007-01-30,90
ABC,LB,ABC-01-051,36,S0061233,CHOL,Cholesterol,CHEMISTRY,208,mg/dL,0,239,208,208,mg/dL,0,239,NORMAL,,,,0,SCREENING,2006-10-25T13:02:00,-8,2006-10-25,-8
ABC,LB,ABC-01-051,37,S3646015,CHOL,Cholesterol,CHEMISTRY,214,mg/dL,0,239,214,214,mg/dL,0,239,NORMAL,,,Y,1,DAY 1,2006-11-02T12:30:00,1,2006-11-02,1
ABC,LB,ABC-01-051,38,S8642171,CHOL,Cholesterol,CHEMISTRY,223,mg/dL,0,239,223,223,mg/dL,0,239,NORMAL,,,,2,WEEK 2,2006-11-16T09:39:00,15,2006-11-16,15
ABC,LB,ABC-01-051,39,S2411728,CHOL,Cholesterol,CHEMISTRY,190,mg/dL,0,239,190,190,mg/dL,0,239,NORMAL,,,,6,WEEK 6,2006-12-14T08:14:00,43,2006-12-14,43
ABC,LB,ABC-01-051,40,S8280851,CHOL,Cholesterol,CHEMISTRY,209,mg/dL,0,239,209,209,mg/dL,0,239,NORMAL,,,,12,WEEK 12,2007-01-30T11:00:00,90,2007-01-30,90
ABC,LB,ABC-01-051,41,S0061233,CL,Chloride,CHEMISTRY,102,mmol/L,100,108,102,102,mmol/L,100,108,NORMAL,,,,0,SCREENING,2006-10-25T13:02:00,-8,2006-10-25,-8
ABC,LB,ABC-01-051,42,S3646015,CL,Chloride,CHEMISTRY,101,mmol/L,100,108,101,101,mmol/L,100,108,NORMAL,,,Y,1,DAY 1,2006-11-02T12:30:00,1,2006-11-02,1
ABC,LB,ABC-01-051,43,S8642171,CL,Chloride,CHEMISTRY,102,mmol/L,100,108,102,102,mmol/L,100,108,NORMAL,,,,2,WEEK 2,2006-11-16T09:39:00,15,2006-11-16,15
ABC,LB,ABC-01-051,44,S2411728,CL,Chloride,CHEMISTRY,103,mmol/L,100,108,103,103,mmol/L,100,108,NORMAL,,,,6,WEEK 6,2006-12-14T08:14:00,43,2006-12-14,43
ABC,LB,ABC-01-051,45,S8280851,CL,Chloride,CHEMISTRY,100,mmol/L,100,108,100,100,mmol/L,100,108,NORMAL,,,,12,WEEK 12,2007-01-30T11:00:00,90,2007-01-30,90
ABC,LB,ABC-01-051,46,S0061233,CREAT,Creatinine,CHEMISTRY,1.2,mg/dL,0.9,1.4,1.2,1.2,mg/dL,0.9,1.4,NORMAL,,,,0,SCREENING,2006-10-25T13:02:00,-8,2006-10-25,-8
ABC,LB,ABC-01-051,47,S3646015,CREAT,Creatinine,CHEMISTRY,1.0,mg/dL,0.9,1.4,1.0,1,mg/dL,0.9,1.4,NORMAL,,,Y,1,DAY 1,2006-11-02T12:30:00,1,2006-11-02,1
ABC,LB,ABC-01-051,48,S8642171,CREAT,Creatinine,CHEMISTRY,1.0,mg/dL,0.9,1.4,1.0,1,mg/dL,0.9,1.4,NORMAL,,,,2,WEEK 2,2006-11-16T09:39:00,15,2006-11-16,15
ABC,LB,ABC-01-051,49,S2411728,CREAT,Creatinine,CHEMISTRY,0.9,mg/dL,0.9,1.4,0.9,0.9,mg/dL,0.9,1.4,NORMAL,,,,6,WEEK 6,2006-12-14T08:14:00,43,2006-12-14,43
ABC,LB,ABC-01-051,50,S8280851,CREAT,Creatinine,CHEMISTRY,0.9,mg/dL,0.9,1.4,0.9,0.9,mg/dL,0.9,1.4,NORMAL,,,,12,WEEK 12,2007-01-30T11:00:00,90,2007-01-30,90
ABC,LB,ABC-01-051,51,S0061233,GLUC,Glucose,CHEMISTRY,94,mg/dL,70,100,94,94,mg/dL,70,100,NORMAL,,,,0,SCREENING,2006-10-25T13:02:00,-8,2006-10-25,-8
ABC,LB,ABC-01-051,52,S3646015,GLUC,Glucose,CHEMISTRY,98,mg/dL,70,100,98,98,mg/dL,70,100,NORMAL,,,Y,1,DAY 1,2006-11-02T12:30:00,1,2006-11-02,1
ABC,LB,ABC-01-051,53,S8642171,GLUC,Glucose,CHEMISTRY,92,mg/dL,70,100,92,92,mg/dL,70,100,NORMAL,,,,2,WEEK 2,2006-11-16T09:39:00,15,2006-11-16,15
ABC,LB,ABC-01-051,54,S2411728,GLUC,Glucose,CHEMISTRY,66,mg/dL,70,100,66,66,mg/dL,70,100,LOW,,,,6,WEEK 6,2006-12-14T08:14:00,43,2006-12-14,43
ABC,LB,ABC-01-051,55,S8280851,GLUC,Glucose,CHEMISTRY,100,mg/dL,70,100,100,100,mg/dL,70,100,NORMAL,,,,12,WEEK 12,2007-01-30T11:00:00,90,2007-01-30,90
ABC,LB,ABC-01-051,56,S0061233,K,Potassium,CHEMISTRY,4.2,mmol/L,3.6,4.8,4.2,4.2,mmol/L,3.6,4.8,NORMAL,,,,0,SCREENING,2006-10-25T13:02:00,-8,2006-10-25,-8
ABC,LB,ABC-01-051,57,S3646015,K,Potassium,CHEMISTRY,4.6,mmol/L,3.6,4.8,4.6,4.6,mmol/L,3.6,4.8,NORMAL,,,Y,1,DAY 1,2006-11-02T12:30:00,1,2006-11-02,1
ABC,LB,ABC-01-051,58,S8642171,K,Potassium,CHEMISTRY,4.4,mmol/L,3.6,4.8,4.4,4.4,mmol/L,3.6,4.8,NORMAL,,,,2,WEEK 2,2006-11-16T09:39:00,15,2006-11-16,15
ABC,LB,ABC-01-051,59,S2411728,K,Potassium,CHEMISTRY,4.2,mmol/L,3.6,4.8,4.2,4.2,mmol/L,3.6,4.8,NORMAL,,,,6,WEEK 6,2006-12-14T08:14:00,43,2006-12-14,43
ABC,LB,ABC-01-051,60,S8280851,K,Potassium,CHEMISTRY,4.2,mmol/L,3.6,4.8,4.2,4.2,mmol/L,3.6,4.8,NORMAL,,,,12,WEEK 12,2007-01-30T11:00:00,90,2007-01-30,90
ABC,LB,ABC-01-051,61,S0061233,LIPASE,Triacylglycerol Lipase,CHEMISTRY,16,U/L,10,73,16,16,U/L,10,73,NORMAL,,,,0,SCREENING,2006-10-25T13:02:00,-8,2006-10-25,-8
ABC,LB,ABC-01-051,62,S3646015,LIPASE,Triacylglycerol Lipase,CHEMISTRY,12,U/L,10,73,12,12,U/L,10,73,NORMAL,,,Y,1,DAY 1,2006-11-02T12:30:00,1,2006-11-02,1
ABC,LB,ABC-01-051,63,S2411728,LIPASE,Triacylglycerol Lipase,CHEMISTRY,11,U/L,10,73,11,11,U/L,10,73,NORMAL,,,,6,WEEK 6,2006-12-14T08:14:00,43,2006-12-14,43
ABC,LB,ABC-01-051,64,S8280851,LIPASE,Triacylglycerol Lipase,CHEMISTRY,19,U/L,10,73,19,19,U/L,10,73,NORMAL,,,,12,WEEK 12,2007-01-30T11:00:00,90,2007-01-30,90
ABC,LB,ABC-01-051,65,S8642171,LIPASE,Triacylglycerol Lipase,CHEMISTRY,<10,U/L,10,73,<10,,U/L,10,73,LOW,,,,99,UNSCHEDULED 1,2006-11-16T09:39:00,15,2006-11-16,15
ABC,LB,ABC-01-051,66,S0061233,PHOS,Phosphate,CHEMISTRY,3.8,mg/dL,2.5,4.5,3.8,3.8,mg/dL,2.5,4.5,NORMAL,,,,0,SCREENING,2006-10-25T13:02:00,-8,2006-10-25,-8
ABC,LB,ABC-01-051,67,S3646015,PHOS,Phosphate,CHEMISTRY,3.5,mg/dL,2.5,4.5,3.5,3.5,mg/dL,2.5,4.5,NORMAL,,,Y,1,DAY 1,2006-11-02T12:30:00,1,2006-11-02,1
ABC,LB,ABC-01-051,68,S8642171,PHOS,Phosphate,CHEMISTRY,3.4,mg/dL,2.5,4.5,3.4,3.4,mg/dL,2.5,4.5,NORMAL,,,,2,WEEK 2,2006-11-16T09:39:00,15,2006-11-16,15
ABC,LB,ABC-01-051,69,S2411728,PHOS,Phosphate,CHEMISTRY,3.3,mg/dL,2.5,4.5,3.3,3.3,mg/dL,2.5,4.5,NORMAL,,,,6,WEEK 6,2006-12-14T08:14:00,43,2006-12-14,43
ABC,LB,ABC-01-051,70,S8280851,PHOS,Phosphate,CHEMISTRY,3.7,mg/dL,2.5,4.5,3.7,3.7,mg/dL,2.5,4.5,NORMAL,,,,12,WEEK 12,2007-01-30T11:00:00,90,2007-01-30,90
ABC,LB,ABC-01-051,71,S0061233,PROT,Protein,CHEMISTRY,7.2,g/dL,6.3,7.9,7.2,7.2,g/dL,6.3,7.9,NORMAL,,,,0,SCREENING,2006-10-25T13:02:00,-8,2006-10-25,-8
ABC,LB,ABC-01-051,72,S3646015,PROT,Protein,CHEMISTRY,7.5,g/dL,6.3,7.9,7.5,7.5,g/dL,6.3,7.9,NORMAL,,,Y,1,DAY 1,2006-11-02T12:30:00,1,2006-11-02,1
ABC,LB,ABC-01-051,73,S8642171,PROT,Protein,CHEMISTRY,7.6,g/dL,6.3,7.9,7.6,7.6,g/dL,6.3,7.9,NORMAL,,,,2,WEEK 2,2006-11-16T09:39:00,15,2006-11-16,15
ABC,LB,ABC-01-051,74,S2411728,PROT,Protein,CHEMISTRY,7.2,g/dL,6.3,7.9,7.2,7.2,g/dL,6.3,7.9,NORMAL,,,,6,WEEK 6,2006-12-14T08:14:00,43,2006-12-14,43
ABC,LB,ABC-01-051,75,S8280851,PROT,Protein,CHEMISTRY,7.5,g/dL,6.3,7.9,7.5,7.5,g/dL,6.3,7.9,NORMAL,,,,12,WEEK 12,2007-01-30T11:00:00,90,2007-01-30,90
ABC,LB,ABC-01-051,76,S0061233,SODIUM,Sodium,CHEMISTRY,139,mmol/L,135,145,139,139,mmol/L,135,145,NORMAL,,,,0,SCREENING,2006-10-25T13:02:00,-8,2006-10-25,-8
ABC,LB,ABC-01-051,77,S3646015,SODIUM,Sodium,CHEMISTRY,140,mmol/L,135,145,140,140,mmol/L,135,145,NORMAL,,,Y,1,DAY 1,2006-11-02T12:30:00,1,2006-11-02,1
ABC,LB,ABC-01-051,78,S8642171,SODIUM,Sodium,CHEMISTRY,140,mmol/L,135,145,140,140,mmol/L,135,145,NORMAL,,,,2,WEEK 2,2006-11-16T09:39:00,15,2006-11-16,15
ABC,LB,ABC-01-051,79,S2411728,SODIUM,Sodium,CHEMISTRY,143,mmol/L,135,145,143,143,mmol/L,135,145,NORMAL,,,,6,WEEK 6,2006-12-14T08:14:00,43,2006-12-14,43
ABC,LB,ABC-01-051,80,S8280851,SODIUM,Sodium,CHEMISTRY,141,mmol/L,135,145,141,141,mmol/L,135,145,NORMAL,,,,12,WEEK 12,2007-01-30T11:00:00,90,2007-01-30,90
ABC,LB,ABC-01-051,81,S0061233,TRIG,Triglycerides,CHEMISTRY,329,mg/dL,0,199,329,329,mg/dL,0,199,HIGH,,,,0,SCREENING,2006-10-25T13:02:00,-8,2006-10-25,-8
ABC,LB,ABC-01-051,82,S3646015,TRIG,Triglycerides,CHEMISTRY,268,mg/dL,0,199,268,268,mg/dL,0,199,HIGH,,,Y,1,DAY 1,2006-11-02T12:30:00,1,2006-11-02,1
ABC,LB,ABC-01-051,83,S8642171,TRIG,Triglycerides,CHEMISTRY,186,mg/dL,0,199,186,186,mg/dL,0,199,NORMAL,,,,2,WEEK 2,2006-11-16T09:39:00,15,2006-11-16,15
ABC,LB,ABC-01-051,84,S2411728,TRIG,Triglycerides,CHEMISTRY,213,mg/dL,0,199,213,213,mg/dL,0,199,HIGH,,,,6,WEEK 6,2006-12-14T08:14:00,43,2006-12-14,43
ABC,LB,ABC-01-051,85,S8280851,TRIG,Triglycerides,CHEMISTRY,301,mg/dL,0,199,301,301,mg/dL,0,199,HIGH,,,,12,WEEK 12,2007-01-30T11:00:00,90,2007-01-30,90
ABC,LB,ABC-01-051,86,S0061233,URATE,Uric Acid,CHEMISTRY,7.4,mg/dL,4.3,8.0,7.4,7.4,mg/dL,4.3,8,NORMAL,,,,0,SCREENING,2006-10-25T13:02:00,-8,2006-10-25,-8
ABC,LB,ABC-01-051,87,S3646015,URATE,Uric Acid,CHEMISTRY,7.7,mg/dL,4.3,8.0,7.7,7.7,mg/dL,4.3,8,NORMAL,,,Y,1,DAY 1,2006-11-02T12:30:00,1,2006-11-02,1
ABC,LB,ABC-01-051,88,S8642171,URATE,Uric Acid,CHEMISTRY,9.0,mg/dL,4.3,8.0,9.0,9,mg/dL,4.3,8,HIGH,,,,2,WEEK 2,2006-11-16T09:39:00,15,2006-11-16,15
ABC,LB,ABC-01-051,89,S2411728,URATE,Uric Acid,CHEMISTRY,7.9,mg/dL,4.3,8.0,7.9,7.9,mg/dL,4.3,8,NORMAL,,,,6,WEEK 6,2006-12-14T08:14:00,43,2006-12-14,43
ABC,LB,ABC-01-051,90,S8280851,URATE,Uric Acid,CHEMISTRY,8.1,mg/dL,4.3,8.0,8.1,8.1,mg/dL,4.3,8,HIGH,,,,12,WEEK 12,2007-01-30T11:00:00,90,2007-01-30,90
ABC,LB,ABC-01-051,91,S6154200,HCG,Choriogonadotropin Beta,ENDOCRINE,,,,,,,,,,,NOT DONE,Pregnancy test not required per study site.,,0,SCREENING,2006-10-25T13:02:00,-8,2006-10-25,-8
ABC,LB,ABC-01-051,92,S8481177,OSTEOC,Osteocalcin,ENDOCRINE,15.8,ng/mL,,,15.8,15.8,ug/L,,,,,,Y,1,DAY 1,2006-11-02T12:30:00,1,2006-11-02,1
ABC,LB,ABC-01-051,93,S5983746,OSTEOC,Osteocalcin,ENDOCRINE,24.1,ng/mL,,,24.1,24.1,ug/L,,,,,,,6,WEEK 6,2006-12-14T08:14:00,43,2006-12-14,43
ABC,LB,ABC-01-051,94,S0918774,OSTEOC,Osteocalcin,ENDOCRINE,17.5,ng/mL,,,17.5,17.5,ug/L,,,,,,,12,WEEK 12,2007-01-30T11:00:00,90,2007-01-30,90
ABC,LB,ABC-01-051,95,S0288402,PTHI,"Parathyroid Hormone, Intact",ENDOCRINE,51,pg/mL,11,67,5.4,5.4,pmol/L,1.2,7,NORMAL,,,,1,DAY 1,2006-11-02T12:30:00,1,2006-11-02,1
ABC,LB,ABC-01-051,96,S0288402,PTHI,"Parathyroid Hormone, Intact",ENDOCRINE,5.4,pmol/L,1.1,7.1,5.4,5.4,pmol/L,1.1,7.1,NORMAL,,,Y,1,DAY 1,2006-11-02T12:30:00,1,2006-11-02,1
ABC,LB,ABC-01-051,97,S0583396,PTHI,"Parathyroid Hormone, Intact",ENDOCRINE,59,pg/mL,11,67,6.2,6.2,pmol/L,1.2,7,NORMAL,,,,6,WEEK 6,2006-12-14T08:14:00,43,2006-12-14,43
ABC,LB,ABC-01-051,98,S0583396,PTHI,"Parathyroid Hormone, Intact",ENDOCRINE,6.3,pmol/L,1.1,7.1,6.3,6.3,pmol/L,1.1,7.1,NORMAL,,,,6,WEEK 6,2006-12-14T08:14:00,43,2006-12-14,43
ABC,LB,ABC-01-051,99,S4413610,PTHI,"Parathyroid Hormone, Intact",ENDOCRINE,47,pg/mL,11,67,4.9,4.9,pmol/L,1.2,7,NORMAL,,,,12,WEEK 12,2007-01-30T11:00:00,90,2007-01-30,90
ABC,LB,ABC-01-051,100,S4413610,PTHI,"Parathyroid Hormone, Intact",ENDOCRINE,5.0,pmol/L,1.1,7.1,5.0,5,pmol/L,1.1,7.1,NORMAL,,,,12,WEEK 12,2007-01-30T11:00:00,90,2007-01-30,90
ABC,LB,ABC-01-051,101,S0005021,VITDAT,"1, 25-Dihydroxyvitamin D",ENDOCRINE,40,pg/mL,22,67,4.20,4.2,pmol/L,2.31,7.04,NORMAL,,,Y,1,DAY 1,2006-11-02T12:30:00,1,2006-11-02,1
ABC,LB,ABC-01-051,102,S3673207,VITDAT,"1, 25-Dihydroxyvitamin D",ENDOCRINE,43,pg/mL,22,67,4.52,4.52,pmol/L,2.31,7.04,NORMAL,,,,6,WEEK 6,2006-12-14T08:14:00,43,2006-12-14,43
ABC,LB,ABC-01-051,103,S9527587,VITDAT,"1, 25-Dihydroxyvitamin D",ENDOCRINE,29,pg/mL,22,67,3.05,3.05,pmol/L,2.31,7.04,NORMAL,,,,12,WEEK 12,2007-01-30T11:00:00,90,2007-01-30,90
ABC,LB,ABC-01-051,104,S8588885,VITDIT,25-Hydroxyvitamin D,ENDOCRINE,16,ng/mL,25,80,16.0,16,ug/L,25,80,LOW,,,Y,1,DAY 1,2006-11-02T12:30:00,1,2006-11-02,1
ABC,LB,ABC-01-051,105,S8596553,VITDIT,25-Hydroxyvitamin D,ENDOCRINE,12,ng/mL,25,80,12.0,12,ug/L,25,80,LOW,,,,6,WEEK 6,2006-12-14T08:14:00,43,2006-12-14,43
ABC,LB,ABC-01-051,106,S4148048,VITDIT,25-Hydroxyvitamin D,ENDOCRINE,13,ng/mL,25,80,13.0,13,ug/L,25,80,LOW,,,,12,WEEK 12,2007-01-30T11:00:00,90,2007-01-30,90
ABC,LB,ABC-01-051,107,S8588885,VITDIT2,25-Hydroxyvitamin D2,ENDOCRINE,<4.0,ng/mL,,,<4.0,,ug/L,,,,,,Y,1,DAY 1,2006-11-02T12:30:00,1,2006-11-02,1
ABC,LB,ABC-01-051,108,S8596553,VITDIT2,25-Hydroxyvitamin D2,ENDOCRINE,<4.0,ng/mL,,,<4.0,,ug/L,,,,,,,6,WEEK 6,2006-12-14T08:14:00,43,2006-12-14,43
ABC,LB,ABC-01-051,109,S4148048,VITDIT2,25-Hydroxyvitamin D2,ENDOCRINE,<4.0,ng/mL,,,<4.0,,ug/L,,,,,,,12,WEEK 12,2007-01-30T11:00:00,90,2007-01-30,90
ABC,LB,ABC-01-051,110,S8588885,VITDIT3,25-Hydroxyvitamin D3,ENDOCRINE,16,ng/mL,,,16.0,16,ug/L,,,,,,Y,1,DAY 1,2006-11-02T12:30:00,1,2006-11-02,1
ABC,LB,ABC-01-051,111,S8596553,VITDIT3,25-Hydroxyvitamin D3,ENDOCRINE,12,ng/mL,,,12.0,12,ug/L,,,,,,,6,WEEK 6,2006-12-14T08:14:00,43,2006-12-14,43
ABC,LB,ABC-01-051,112,S4148048,VITDIT3,25-Hydroxyvitamin D3,ENDOCRINE,13,ng/mL,,,13.0,13,ug/L,,,,,,,12,WEEK 12,2007-01-30T11:00:00,90,2007-01-30,90
ABC,LB,ABC-01-051,113,S0834820,BASO,Basophils,HEMATOLOGY,0.01,x10(9)/L,0.00,0.30,0.01,0.01,10^9/L,0,0.3,NORMAL,,,,0,SCREENING,2006-10-25T13:02:00,-8,2006-10-25,-8
ABC,LB,ABC-01-051,114,S7375579,BASO,Basophils,HEMATOLOGY,0.03,x10(9)/L,0.00,0.30,0.03,0.03,10^9/L,0,0.3,NORMAL,,,Y,1,DAY 1,2006-11-02T12:30:00,1,2006-11-02,1
ABC,LB,ABC-01-051,115,S6367831,BASO,Basophils,HEMATOLOGY,0.01,x10(9)/L,0.00,0.30,0.01,0.01,10^9/L,0,0.3,NORMAL,,,,2,WEEK 2,2006-11-16T09:39:00,15,2006-11-16,15
ABC,LB,ABC-01-051,116,S1852399,BASO,Basophils,HEMATOLOGY,0.02,x10(9)/L,0.00,0.30,0.02,0.02,10^9/L,0,0.3,NORMAL,,,,6,WEEK 6,2006-12-14T08:14:00,43,2006-12-14,43
ABC,LB,ABC-01-051,117,S5799407,BASO,Basophils,HEMATOLOGY,0.01,x10(9)/L,0.00,0.30,0.01,0.01,10^9/L,0,0.3,NORMAL,,,,12,WEEK 12,2007-01-30T11:00:00,90,2007-01-30,90
ABC,LB,ABC-01-051,118,S0834820,BASOLE,Basophils/Leukocytes,HEMATOLOGY,0.23,%,0,3,0.23,0.23,%,0,3,NORMAL,,,,0,SCREENING,2006-10-25T13:02:00,-8,2006-10-25,-8
ABC,LB,ABC-01-051,119,S7375579,BASOLE,Basophils/Leukocytes,HEMATOLOGY,0.56,%,0,3,0.56,0.56,%,0,3,NORMAL,,,Y,1,DAY 1,2006-11-02T12:30:00,1,2006-11-02,1
ABC,LB,ABC-01-051,120,S6367831,BASOLE,Basophils/Leukocytes,HEMATOLOGY,0.15,%,0,3,0.15,0.15,%,0,3,NORMAL,,,,2,WEEK 2,2006-11-16T09:39:00,15,2006-11-16,15
ABC,LB,ABC-01-051,121,S1852399,BASOLE,Basophils/Leukocytes,HEMATOLOGY,0.32,%,0,3,0.32,0.32,%,0,3,NORMAL,,,,6,WEEK 6,2006-12-14T08:14:00,43,2006-12-14,43
ABC,LB,ABC-01-051,122,S5799407,BASOLE,Basophils/Leukocytes,HEMATOLOGY,0.23,%,0,3,0.23,0.23,%,0,3,NORMAL,,,,12,WEEK 12,2007-01-30T11:00:00,90,2007-01-30,90
ABC,LB,ABC-01-051,123,S0834820,EOS,Eosinophils,HEMATOLOGY,0.10,x10(9)/L,0.05,0.50,0.10,0.1,10^9/L,0.05,0.5,NORMAL,,,,0,SCREENING,2006-10-25T13:02:00,-8,2006-10-25,-8
ABC,LB,ABC-01-051,124,S7375579,EOS,Eosinophils,HEMATOLOGY,0.09,x10(9)/L,0.05,0.50,0.09,0.09,10^9/L,0.05,0.5,NORMAL,,,Y,1,DAY 1,2006-11-02T12:30:00,1,2006-11-02,1
ABC,LB,ABC-01-051,125,S6367831,EOS,Eosinophils,HEMATOLOGY,0.12,x10(9)/L,0.05,0.50,0.12,0.12,10^9/L,0.05,0.5,NORMAL,,,,2,WEEK 2,2006-11-16T09:39:00,15,2006-11-16,15
ABC,LB,ABC-01-051,126,S1852399,EOS,Eosinophils,HEMATOLOGY,0.13,x10(9)/L,0.05,0.50,0.13,0.13,10^9/L,0.05,0.5,NORMAL,,,,6,WEEK 6,2006-12-14T08:14:00,43,2006-12-14,43
ABC,LB,ABC-01-051,127,S5799407,EOS,Eosinophils,HEMATOLOGY,0.12,x10(9)/L,0.05,0.50,0.12,0.12,10^9/L,0.05,0.5,NORMAL,,,,12,WEEK 12,2007-01-30T11:00:00,90,2007-01-30,90
ABC,LB,ABC-01-051,128,S0834820,EOSLE,Eosinophils/Leukocytes,HEMATOLOGY,2.15,%,0,7,2.15,2.15,%,0,7,NORMAL,,,,0,SCREENING,2006-10-25T13:02:00,-8,2006-10-25,-8
ABC,LB,ABC-01-051,129,S7375579,EOSLE,Eosinophils/Leukocytes,HEMATOLOGY,2.09,%,0,7,2.09,2.09,%,0,7,NORMAL,,,Y,1,DAY 1,2006-11-02T12:30:00,1,2006-11-02,1
ABC,LB,ABC-01-051,130,S6367831,EOSLE,Eosinophils/Leukocytes,HEMATOLOGY,2.35,%,0,7,2.35,2.35,%,0,7,NORMAL,,,,2,WEEK 2,2006-11-16T09:39:00,15,2006-11-16,15
ABC,LB,ABC-01-051,131,S1852399,EOSLE,Eosinophils/Leukocytes,HEMATOLOGY,2.63,%,0,7,2.63,2.63,%,0,7,NORMAL,,,,6,WEEK 6,2006-12-14T08:14:00,43,2006-12-14,43
ABC,LB,ABC-01-051,132,S5799407,EOSLE,Eosinophils/Leukocytes,HEMATOLOGY,2.37,%,0,7,2.37,2.37,%,0,7,NORMAL,,,,12,WEEK 12,2007-01-30T11:00:00,90,2007-01-30,90
ABC,LB,ABC-01-051,133,S0834820,HCT,Hematocrit,HEMATOLOGY,41.6,%,38.8,50.0,41.6,41.6,%,38.8,50,NORMAL,,,,0,SCREENING,2006-10-25T13:02:00,-8,2006-10-25,-8
ABC,LB,ABC-01-051,134,S7375579,HCT,Hematocrit,HEMATOLOGY,40.7,%,38.8,50.0,40.7,40.7,%,38.8,50,NORMAL,,,Y,1,DAY 1,2006-11-02T12:30:00,1,2006-11-02,1
ABC,LB,ABC-01-051,135,S6367831,HCT,Hematocrit,HEMATOLOGY,40.5,%,38.8,50.0,40.5,40.5,%,38.8,50,NORMAL,,,,2,WEEK 2,2006-11-16T09:39:00,15,2006-11-16,15
ABC,LB,ABC-01-051,136,S1852399,HCT,Hematocrit,HEMATOLOGY,40.2,%,38.8,50.0,40.2,40.2,%,38.8,50,NORMAL,,,,6,WEEK 6,2006-12-14T08:14:00,43,2006-12-14,43
ABC,LB,ABC-01-051,137,S5799407,HCT,Hematocrit,HEMATOLOGY,40.2,%,38.8,50.0,40.2,40.2,%,38.8,50,NORMAL,,,,12,WEEK 12,2007-01-30T11:00:00,90,2007-01-30,90
ABC,LB,ABC-01-051,138,S0834820,HGB,Hemoglobin,HEMATOLOGY,14.5,g/dL,13.5,17.5,14.5,14.5,g/dL,13.5,17.5,NORMAL,,,,0,SCREENING,2006-10-25T13:02:00,-8,2006-10-25,-8
ABC,LB,ABC-01-051,139,S7375579,HGB,Hemoglobin,HEMATOLOGY,14.3,g/dL,13.5,17.5,14.3,14.3,g/dL,13.5,17.5,NORMAL,,,Y,1,DAY 1,2006-11-02T12:30:00,1,2006-11-02,1
ABC,LB,ABC-01-051,140,S6367831,HGB,Hemoglobin,HEMATOLOGY,14.1,g/dL,13.5,17.5,14.1,14.1,g/dL,13.5,17.5,NORMAL,,,,2,WEEK 2,2006-11-16T09:39:00,15,2006-11-16,15
ABC,LB,ABC-01-051,141,S1852399,HGB,Hemoglobin,HEMATOLOGY,14.1,g/dL,13.5,17.5,14.1,14.1,g/dL,13.5,17.5,NORMAL,,,,6,WEEK 6,2006-12-14T08:14:00,43,2006-12-14,43
ABC,LB,ABC-01-051,142,S5799407,HGB,Hemoglobin,HEMATOLOGY,13.9,g/dL,13.5,17.5,13.9,13.9,g/dL,13.5,17.5,NORMAL,,,,12,WEEK 12,2007-01-30T11:00:00,90,2007-01-30,90
ABC,LB,ABC-01-051,143,S0834820,LYM,Lymphocytes,HEMATOLOGY,1.52,x10(9)/L,0.90,2.90,1.52,1.52,10^9/L,0.9,2.9,NORMAL,,,,0,SCREENING,2006-10-25T13:02:00,-8,2006-10-25,-8
ABC,LB,ABC-01-051,144,S7375579,LYM,Lymphocytes,HEMATOLOGY,1.24,x10(9)/L,0.90,2.90,1.24,1.24,10^9/L,0.9,2.9,NORMAL,,,Y,1,DAY 1,2006-11-02T12:30:00,1,2006-11-02,1
ABC,LB,ABC-01-051,145,S6367831,LYM,Lymphocytes,HEMATOLOGY,1.47,x10(9)/L,0.90,2.90,1.47,1.47,10^9/L,0.9,2.9,NORMAL,,,,2,WEEK 2,2006-11-16T09:39:00,15,2006-11-16,15
ABC,LB,ABC-01-051,146,S1852399,LYM,Lymphocytes,HEMATOLOGY,1.38,x10(9)/L,0.90,2.90,1.38,1.38,10^9/L,0.9,2.9,NORMAL,,,,6,WEEK 6,2006-12-14T08:14:00,43,2006-12-14,43
ABC,LB,ABC-01-051,147,S5799407,LYM,Lymphocytes,HEMATOLOGY,1.49,x10(9)/L,0.90,2.90,1.49,1.49,10^9/L,0.9,2.9,NORMAL,,,,12,WEEK 12,2007-01-30T11:00:00,90,2007-01-30,90
ABC,LB,ABC-01-051,148,S0834820,LYMLE,Lymphocytes/Leukocytes,HEMATOLOGY,31.86,%,17,42,31.86,31.86,%,17,42,NORMAL,,,,0,SCREENING,2006-10-25T13:02:00,-8,2006-10-25,-8
ABC,LB,ABC-01-051,149,S7375579,LYMLE,Lymphocytes/Leukocytes,HEMATOLOGY,27.67,%,17,42,27.67,27.67,%,17,42,NORMAL,,,Y,1,DAY 1,2006-11-02T12:30:00,1,2006-11-02,1
ABC,LB,ABC-01-051,150,S6367831,LYMLE,Lymphocytes/Leukocytes,HEMATOLOGY,28.47,%,17,42,28.47,28.47,%,17,42,NORMAL,,,,2,WEEK 2,2006-11-16T09:39:00,15,2006-11-16,15
ABC,LB,ABC-01-051,151,S1852399,LYMLE,Lymphocytes/Leukocytes,HEMATOLOGY,27.96,%,17,42,27.96,27.96,%,17,42,NORMAL,,,,6,WEEK 6,2006-12-14T08:14:00,43,2006-12-14,43
ABC,LB,ABC-01-051,152,S5799407,LYMLE,Lymphocytes/Leukocytes,HEMATOLOGY,30.13,%,17,42,30.13,30.13,%,17,42,NORMAL,,,,12,WEEK 12,2007-01-30T11:00:00,90,2007-01-30,90
ABC,LB,ABC-01-051,153,S0834820,MCH,Ery. Mean Corpuscular Hemoglobin,HEMATOLOGY,30.2,pg,27.4,33.0,30.2,30.2,pg,27.4,33,NORMAL,,,,0,SCREENING,2006-10-25T13:02:00,-8,2006-10-25,-8
ABC,LB,ABC-01-051,154,S7375579,MCH,Ery. Mean Corpuscular Hemoglobin,HEMATOLOGY,30.6,pg,27.4,33.0,30.6,30.6,pg,27.4,33,NORMAL,,,Y,1,DAY 1,2006-11-02T12:30:00,1,2006-11-02,1
ABC,LB,ABC-01-051,155,S6367831,MCH,Ery. Mean Corpuscular Hemoglobin,HEMATOLOGY,30.0,pg,27.4,33.0,30.0,30,pg,27.4,33,NORMAL,,,,2,WEEK 2,2006-11-16T09:39:00,15,2006-11-16,15
ABC,LB,ABC-01-051,156,S1852399,MCH,Ery. Mean Corpuscular Hemoglobin,HEMATOLOGY,30.5,pg,27.4,33.0,30.5,30.5,pg,27.4,33,NORMAL,,,,6,WEEK 6,2006-12-14T08:14:00,43,2006-12-14,43
ABC,LB,ABC-01-051,157,S5799407,MCH,Ery. Mean Corpuscular Hemoglobin,HEMATOLOGY,30.3,pg,27.4,33.0,30.3,30.3,pg,27.4,33,NORMAL,,,,12,WEEK 12,2007-01-30T11:00:00,90,2007-01-30,90
ABC,LB,ABC-01-051,158,S0834820,MCHC,Ery. Mean Corpuscular HGB Concentration,HEMATOLOGY,34.9,g/dL,33.3,35.2,34.9,34.9,g/dL,33.3,35.2,NORMAL,,,,0,SCREENING,2006-10-25T13:02:00,-8,2006-10-25,-8
ABC,LB,ABC-01-051,159,S7375579,MCHC,Ery. Mean Corpuscular HGB Concentration,HEMATOLOGY,35.2,g/dL,33.3,35.2,35.2,35.2,g/dL,33.3,35.2,NORMAL,,,Y,1,DAY 1,2006-11-02T12:30:00,1,2006-11-02,1
ABC,LB,ABC-01-051,160,S6367831,MCHC,Ery. Mean Corpuscular HGB Concentration,HEMATOLOGY,34.7,g/dL,33.3,35.2,34.7,34.7,g/dL,33.3,35.2,NORMAL,,,,2,WEEK 2,2006-11-16T09:39:00,15,2006-11-16,15
ABC,LB,ABC-01-051,161,S1852399,MCHC,Ery. Mean Corpuscular HGB Concentration,HEMATOLOGY,35.2,g/dL,33.3,35.2,35.2,35.2,g/dL,33.3,35.2,NORMAL,,,,6,WEEK 6,2006-12-14T08:14:00,43,2006-12-14,43
ABC,LB,ABC-01-051,162,S5799407,MCHC,Ery. Mean Corpuscular HGB Concentration,HEMATOLOGY,34.6,g/dL,33.3,35.2,34.6,34.6,g/dL,33.3,35.2,NORMAL,,,,12,WEEK 12,2007-01-30T11:00:00,90,2007-01-30,90
ABC,LB,ABC-01-051,163,S0834820,MCV,Ery. Mean Corpuscular Volume,HEMATOLOGY,86.7,fL,81.2,95.1,86.7,86.7,fL,81.2,95.1,NORMAL,,,,0,SCREENING,2006-10-25T13:02:00,-8,2006-10-25,-8
ABC,LB,ABC-01-051,164,S7375579,MCV,Ery. Mean Corpuscular Volume,HEMATOLOGY,86.9,fL,81.2,95.1,86.9,86.9,fL,81.2,95.1,NORMAL,,,Y,1,DAY 1,2006-11-02T12:30:00,1,2006-11-02,1
ABC,LB,ABC-01-051,165,S6367831,MCV,Ery. Mean Corpuscular Volume,HEMATOLOGY,86.4,fL,81.2,95.1,86.4,86.4,fL,81.2,95.1,NORMAL,,,,2,WEEK 2,2006-11-16T09:39:00,15,2006-11-16,15
ABC,LB,ABC-01-051,166,S1852399,MCV,Ery. Mean Corpuscular Volume,HEMATOLOGY,86.5,fL,81.2,95.1,86.5,86.5,fL,81.2,95.1,NORMAL,,,,6,WEEK 6,2006-12-14T08:14:00,43,2006-12-14,43
ABC,LB,ABC-01-051,167,S5799407,MCV,Ery. Mean Corpuscular Volume,HEMATOLOGY,87.6,fL,81.2,95.1,87.6,87.6,fL,81.2,95.1,NORMAL,,,,12,WEEK 12,2007-01-30T11:00:00,90,2007-01-30,90
ABC,LB,ABC-01-051,168,S0834820,MONO,Monocytes,HEMATOLOGY,0.51,x10(9)/L,0.30,0.90,0.51,0.51,10^9/L,0.3,0.9,NORMAL,,,,0,SCREENING,2006-10-25T13:02:00,-8,2006-10-25,-8
ABC,LB,ABC-01-051,169,S7375579,MONO,Monocytes,HEMATOLOGY,0.41,x10(9)/L,0.30,0.90,0.41,0.41,10^9/L,0.3,0.9,NORMAL,,,Y,1,DAY 1,2006-11-02T12:30:00,1,2006-11-02,1
ABC,LB,ABC-01-051,170,S6367831,MONO,Monocytes,HEMATOLOGY,0.48,x10(9)/L,0.30,0.90,0.48,0.48,10^9/L,0.3,0.9,NORMAL,,,,2,WEEK 2,2006-11-16T09:39:00,15,2006-11-16,15
ABC,LB,ABC-01-051,171,S1852399,MONO,Monocytes,HEMATOLOGY,0.45,x10(9)/L,0.30,0.90,0.45,0.45,10^9/L,0.3,0.9,NORMAL,,,,6,WEEK 6,2006-12-14T08:14:00,43,2006-12-14,43
ABC,LB,ABC-01-051,172,S5799407,MONO,Monocytes,HEMATOLOGY,0.51,x10(9)/L,0.30,0.90,0.51,0.51,10^9/L,0.3,0.9,NORMAL,,,,12,WEEK 12,2007-01-30T11:00:00,90,2007-01-30,90
ABC,LB,ABC-01-051,173,S0834820,MONOLE,Monocytes/Leukocytes,HEMATOLOGY,10.80,%,4,15,10.80,10.8,%,4,15,NORMAL,,,,0,SCREENING,2006-10-25T13:02:00,-8,2006-10-25,-8
ABC,LB,ABC-01-051,174,S7375579,MONOLE,Monocytes/Leukocytes,HEMATOLOGY,9.13,%,4,15,9.13,9.13,%,4,15,NORMAL,,,Y,1,DAY 1,2006-11-02T12:30:00,1,2006-11-02,1
ABC,LB,ABC-01-051,175,S6367831,MONOLE,Monocytes/Leukocytes,HEMATOLOGY,9.26,%,4,15,9.26,9.26,%,4,15,NORMAL,,,,2,WEEK 2,2006-11-16T09:39:00,15,2006-11-16,15
ABC,LB,ABC-01-051,176,S1852399,MONOLE,Monocytes/Leukocytes,HEMATOLOGY,9.22,%,4,15,9.22,9.22,%,4,15,NORMAL,,,,6,WEEK 6,2006-12-14T08:14:00,43,2006-12-14,43
ABC,LB,ABC-01-051,177,S5799407,MONOLE,Monocytes/Leukocytes,HEMATOLOGY,10.32,%,4,15,10.32,10.32,%,4,15,NORMAL,,,,12,WEEK 12,2007-01-30T11:00:00,90,2007-01-30,90
ABC,LB,ABC-01-051,178,S0834820,NEUT,Neutrophils,HEMATOLOGY,2.62,x10(9)/L,1.70,7.00,2.62,2.62,10^9/L,1.7,7,NORMAL,,,,0,SCREENING,2006-10-25T13:02:00,-8,2006-10-25,-8
ABC,LB,ABC-01-051,179,S7375579,NEUT,Neutrophils,HEMATOLOGY,2.71,x10(9)/L,1.70,7.00,2.71,2.71,10^9/L,1.7,7,NORMAL,,,Y,1,DAY 1,2006-11-02T12:30:00,1,2006-11-02,1
ABC,LB,ABC-01-051,180,S6367831,NEUT,Neutrophils,HEMATOLOGY,3.10,x10(9)/L,1.70,7.00,3.10,3.1,10^9/L,1.7,7,NORMAL,,,,2,WEEK 2,2006-11-16T09:39:00,15,2006-11-16,15
ABC,LB,ABC-01-051,181,S1852399,NEUT,Neutrophils,HEMATOLOGY,2.95,x10(9)/L,1.70,7.00,2.95,2.95,10^9/L,1.7,7,NORMAL,,,,6,WEEK 6,2006-12-14T08:14:00,43,2006-12-14,43
ABC,LB,ABC-01-051,182,S5799407,NEUT,Neutrophils,HEMATOLOGY,2.81,x10(9)/L,1.70,7.00,2.81,2.81,10^9/L,1.7,7,NORMAL,,,,12,WEEK 12,2007-01-30T11:00:00,90,2007-01-30,90
ABC,LB,ABC-01-051,183,S0834820,NEUTLE,Neutrophils/Leukocytes,HEMATOLOGY,54.96,%,44,71,54.96,54.96,%,44,71,NORMAL,,,,0,SCREENING,2006-10-25T13:02:00,-8,2006-10-25,-8
ABC,LB,ABC-01-051,184,S7375579,NEUTLE,Neutrophils/Leukocytes,HEMATOLOGY,60.55,%,44,71,60.55,60.55,%,44,71,NORMAL,,,Y,1,DAY 1,2006-11-02T12:30:00,1,2006-11-02,1
ABC,LB,ABC-01-051,185,S6367831,NEUTLE,Neutrophils/Leukocytes,HEMATOLOGY,59.77,%,44,71,59.77,59.77,%,44,71,NORMAL,,,,2,WEEK 2,2006-11-16T09:39:00,15,2006-11-16,15
ABC,LB,ABC-01-051,186,S1852399,NEUTLE,Neutrophils/Leukocytes,HEMATOLOGY,59.87,%,44,71,59.87,59.87,%,44,71,NORMAL,,,,6,WEEK 6,2006-12-14T08:14:00,43,2006-12-14,43
ABC,LB,ABC-01-051,187,S5799407,NEUTLE,Neutrophils/Leukocytes,HEMATOLOGY,56.95,%,44,71,56.95,56.95,%,44,71,NORMAL,,,,12,WEEK 12,2007-01-30T11:00:00,90,2007-01-30,90
ABC,LB,ABC-01-051,188,S0834820,PLAT,Platelets,HEMATOLOGY,221,x10(9)/L,150,450,221,221,10^9/L,150,450,NORMAL,,,,0,SCREENING,2006-10-25T13:02:00,-8,2006-10-25,-8
ABC,LB,ABC-01-051,189,S7375579,PLAT,Platelets,HEMATOLOGY,230,x10(9)/L,150,450,230,230,10^9/L,150,450,NORMAL,,,Y,1,DAY 1,2006-11-02T12:30:00,1,2006-11-02,1
ABC,LB,ABC-01-051,190,S6367831,PLAT,Platelets,HEMATOLOGY,261,x10(9)/L,150,450,261,261,10^9/L,150,450,NORMAL,,,,2,WEEK 2,2006-11-16T09:39:00,15,2006-11-16,15
ABC,LB,ABC-01-051,191,S1852399,PLAT,Platelets,HEMATOLOGY,225,x10(9)/L,150,450,225,225,10^9/L,150,450,NORMAL,,,,6,WEEK 6,2006-12-14T08:14:00,43,2006-12-14,43
ABC,LB,ABC-01-051,192,S5799407,PLAT,Platelets,HEMATOLOGY,216,x10(9)/L,150,450,216,216,10^9/L,150,450,NORMAL,,,,12,WEEK 12,2007-01-30T11:00:00,90,2007-01-30,90
ABC,LB,ABC-01-051,193,S0834820,RBC,Erythrocytes,HEMATOLOGY,4.80,x10(12)/L,4.32,5.72,4.80,4.8,10^12/L,4.32,5.72,NORMAL,,,,0,SCREENING,2006-10-25T13:02:00,-8,2006-10-25,-8
ABC,LB,ABC-01-051,194,S7375579,RBC,Erythrocytes,HEMATOLOGY,4.69,x10(12)/L,4.32,5.72,4.69,4.69,10^12/L,4.32,5.72,NORMAL,,,Y,1,DAY 1,2006-11-02T12:30:00,1,2006-11-02,1
ABC,LB,ABC-01-051,195,S6367831,RBC,Erythrocytes,HEMATOLOGY,4.69,x10(12)/L,4.32,5.72,4.69,4.69,10^12/L,4.32,5.72,NORMAL,,,,2,WEEK 2,2006-11-16T09:39:00,15,2006-11-16,15
ABC,LB,ABC-01-051,196,S1852399,RBC,Erythrocytes,HEMATOLOGY,4.64,x10(12)/L,4.32,5.72,4.64,4.64,10^12/L,4.32,5.72,NORMAL,,,,6,WEEK 6,2006-12-14T08:14:00,43,2006-12-14,43
ABC,LB,ABC-01-051,197,S5799407,RBC,Erythrocytes,HEMATOLOGY,4.59,x10(12)/L,4.32,5.72,4.59,4.59,10^12/L,4.32,5.72,NORMAL,,,,12,WEEK 12,2007-01-30T11:00:00,90,2007-01-30,90
ABC,LB,ABC-01-051,198,S0834820,RDW,Erythrocytes Distribution Width,HEMATOLOGY,12.8,%,11.8,15.6,12.8,12.8,%,11.8,15.6,NORMAL,,,,0,SCREENING,2006-10-25T13:02:00,-8,2006-10-25,-8
ABC,LB,ABC-01-051,199,S7375579,RDW,Erythrocytes Distribution Width,HEMATOLOGY,13.0,%,11.8,15.6,13.0,13,%,11.8,15.6,NORMAL,,,Y,1,DAY 1,2006-11-02T12:30:00,1,2006-11-02,1
ABC,LB,ABC-01-051,200,S6367831,RDW,Erythrocytes Distribution Width,HEMATOLOGY,13.4,%,11.8,15.6,13.4,13.4,%,11.8,15.6,NORMAL,,,,2,WEEK 2,2006-11-16T09:39:00,15,2006-11-16,15
ABC,LB,ABC-01-051,201,S1852399,RDW,Erythrocytes Distribution Width,HEMATOLOGY,13.3,%,11.8,15.6,13.3,13.3,%,11.8,15.6,NORMAL,,,,6,WEEK 6,2006-12-14T08:14:00,43,2006-12-14,43
ABC,LB,ABC-01-051,202,S5799407,RDW,Erythrocytes Distribution Width,HEMATOLOGY,12.8,%,11.8,15.6,12.8,12.8,%,11.8,15.6,NORMAL,,,,12,WEEK 12,2007-01-30T11:00:00,90,2007-01-30,90
ABC,LB,ABC-01-051,203,S0834820,WBC,Leukocytes,HEMATOLOGY,4.8,x10(9)/L,3.5,10.5,4.8,4.8,10^9/L,3.5,10.5,NORMAL,,,,0,SCREENING,2006-10-25T13:02:00,-8,2006-10-25,-8
ABC,LB,ABC-01-051,204,S7375579,WBC,Leukocytes,HEMATOLOGY,4.5,x10(9)/L,3.5,10.5,4.5,4.5,10^9/L,3.5,10.5,NORMAL,,,Y,1,DAY 1,2006-11-02T12:30:00,1,2006-11-02,1
ABC,LB,ABC-01-051,205,S6367831,WBC,Leukocytes,HEMATOLOGY,5.2,x10(9)/L,3.5,10.5,5.2,5.2,10^9/L,3.5,10.5,NORMAL,,,,2,WEEK 2,2006-11-16T09:39:00,15,2006-11-16,15
ABC,LB,ABC-01-051,206,S1852399,WBC,Leukocytes,HEMATOLOGY,4.9,x10(9)/L,3.5,10.5,4.9,4.9,10^9/L,3.5,10.5,NORMAL,,,,6,WEEK 6,2006-12-14T08:14:00,43,2006-12-14,43
ABC,LB,ABC-01-051,207,S5799407,WBC,Leukocytes,HEMATOLOGY,4.9,x10(9)/L,3.5,10.5,4.9,4.9,10^9/L,3.5,10.5,NORMAL,,,,12,WEEK 12,2007-01-30T11:00:00,90,2007-01-30,90
ABC,LB,ABC-01-051,208,S2994491,BILI,Bilirubin,URINALYSIS,NEGATIVE,,,,NEGATIVE,,,,,,,,,0,SCREENING,2006-10-25T13:02:00,-8,2006-10-25,-8
ABC,LB,ABC-01-051,209,S8882014,BILI,Bilirubin,URINALYSIS,NEGATIVE,,,,NEGATIVE,,,,,,,,Y,1,DAY 1,2006-11-02T13:35:00,1,2006-11-02,1
ABC,LB,ABC-01-051,210,S1817610,BILI,Bilirubin,URINALYSIS,NEGATIVE,,,,NEGATIVE,,,,,,,,,2,WEEK 2,2006-11-16T09:50:00,15,2006-11-16,15
ABC,LB,ABC-01-051,211,S4406803,BILI,Bilirubin,URINALYSIS,NEGATIVE,,,,NEGATIVE,,,,,,,,,6,WEEK 6,2006-12-14T08:20:00,43,2006-12-14,43
ABC,LB,ABC-01-051,212,S0002167,BILI,Bilirubin,URINALYSIS,NEGATIVE,,,,NEGATIVE,,,,,,,,,12,WEEK 12,2007-01-30T12:18:00,90,2007-01-30,90
ABC,LB,ABC-01-051,213,S9997386,CACONC,Calcium Concentration,URINALYSIS,94.94520179,mg/L,,,94.945202,94.945202,mg/L,,,,,,,0,SCREENING,2006-10-25T13:02:00,-8,2006-10-25,-8
ABC,LB,ABC-01-051,214,S0473187,CACONC,Calcium Concentration,URINALYSIS,17,mg/L,,,17.000000,17,mg/L,,,,,,Y,1,DAY 1,2006-11-02T13:35:00,1,2006-11-02,1
ABC,LB,ABC-01-051,215,S1599221,CACONC,Calcium Concentration,URINALYSIS,25,mg/L,,,25.000000,25,mg/L,,,,,,,2,WEEK 2,2006-11-16T09:50:00,15,2006-11-16,15
ABC,LB,ABC-01-051,216,S6165709,CACONC,Calcium Concentration,URINALYSIS,104,mg/L,,,104.000000,104,mg/L,,,,,,,6,WEEK 6,2006-12-14T08:20:00,43,2006-12-14,43
ABC,LB,ABC-01-051,217,S3194168,CACONC,Calcium Concentration,URINALYSIS,55,mg/L,,,55.000000,55,mg/L,,,,,,,12,WEEK 12,2007-01-30T12:18:00,90,2007-01-30,90
ABC,LB,ABC-01-051,218,S9997386,CACREAT,Calcium/Creatinine,URINALYSIS,0.07,,,,0.07,0.07,,,,,,,,0,SCREENING,2006-10-25T13:02:00,-8,2006-10-25,-8
ABC,LB,ABC-01-051,219,S0473187,CACREAT,Calcium/Creatinine,URINALYSIS,0.03,,,,0.03,0.03,,,,,,,Y,1,DAY 1,2006-11-02T13:35:00,1,2006-11-02,1
ABC,LB,ABC-01-051,220,S1599221,CACREAT,Calcium/Creatinine,URINALYSIS,0.06,,,,0.06,0.06,,,,,,,,2,WEEK 2,2006-11-16T09:50:00,15,2006-11-16,15
ABC,LB,ABC-01-051,221,S6165709,CACREAT,Calcium/Creatinine,URINALYSIS,0.12,,,,0.12,0.12,,,,,,,,6,WEEK 6,2006-12-14T08:20:00,43,2006-12-14,43
ABC,LB,ABC-01-051,222,S3194168,CACREAT,Calcium/Creatinine,URINALYSIS,0.05,,,,0.05,0.05,,,,,,,,12,WEEK 12,2007-01-30T12:18:00,90,2007-01-30,90
ABC,LB,ABC-01-051,223,S9997386,CREACONC,Creatinine Concentration,URINALYSIS,140,mg/dL,,,140,140,mg/dL,,,,,,,0,SCREENING,2006-10-25T13:02:00,-8,2006-10-25,-8
ABC,LB,ABC-01-051,224,S0473187,CREACONC,Creatinine Concentration,URINALYSIS,65,mg/dL,,,65,65,mg/dL,,,,,,Y,1,DAY 1,2006-11-02T13:35:00,1,2006-11-02,1
ABC,LB,ABC-01-051,225,S1599221,CREACONC,Creatinine Concentration,URINALYSIS,45,mg/dL,,,45,45,mg/dL,,,,,,,2,WEEK 2,2006-11-16T09:50:00,15,2006-11-16,15
ABC,LB,ABC-01-051,226,S6165709,CREACONC,Creatinine Concentration,URINALYSIS,88,mg/dL,,,88,88,mg/dL,,,,,,,6,WEEK 6,2006-12-14T08:20:00,43,2006-12-14,43
ABC,LB,ABC-01-051,227,S3194168,CREACONC,Creatinine Concentration,URINALYSIS,105,mg/dL,,,105,105,mg/dL,,,,,,,12,WEEK 12,2007-01-30T12:18:00,90,2007-01-30,90
ABC,LB,ABC-01-051,228,S2994491,GLUC,Glucose,URINALYSIS,NEGATIVE,g/dL,,,NEGATIVE,,g/dL,,,,,,,0,SCREENING,2006-10-25T13:02:00,-8,2006-10-25,-8
ABC,LB,ABC-01-051,229,S8882014,GLUC,Glucose,URINALYSIS,NEGATIVE,g/dL,,,NEGATIVE,,g/dL,,,,,,Y,1,DAY 1,2006-11-02T13:35:00,1,2006-11-02,1
ABC,LB,ABC-01-051,230,S1817610,GLUC,Glucose,URINALYSIS,NEGATIVE,g/dL,,,NEGATIVE,,g/dL,,,,,,,2,WEEK 2,2006-11-16T09:50:00,15,2006-11-16,15
ABC,LB,ABC-01-051,231,S4406803,GLUC,Glucose,URINALYSIS,NEGATIVE,g/dL,,,NEGATIVE,,g/dL,,,,,,,6,WEEK 6,2006-12-14T08:20:00,43,2006-12-14,43
ABC,LB,ABC-01-051,232,S0002167,GLUC,Glucose,URINALYSIS,NEGATIVE,g/dL,,,NEGATIVE,,g/dL,,,,,,,12,WEEK 12,2007-01-30T12:18:00,90,2007-01-30,90
ABC,LB,ABC-01-051,233,,HCG,Choriogonadotropin Beta,URINALYSIS,,,,,,,,,,,NOT DONE,Subject is male or female who is post-menopausal or has undergone successful surgical sterilization,,4,WEEK 4,,,2006-11-30,29
ABC,LB,ABC-01-051,234,,HCG,Choriogonadotropin Beta,URINALYSIS,,,,,,,,,,,NOT DONE,Subject is male or female who is post-menopausal or has undergone successful surgical sterilization,,8,WEEK 8,,,2006-12-28,57
ABC,LB,ABC-01-051,235,,HCG,Choriogonadotropin Beta,URINALYSIS,,,,,,,,,,,NOT DONE,Subject is male or female who is post-menopausal or has undergone successful surgical sterilization,,12,WEEK 12,,,2007-01-30,90
ABC,LB,ABC-01-051,236,S2994491,HGB,Hemoglobin,URINALYSIS,NEGATIVE,,,,NEGATIVE,,,,,,,,,0,SCREENING,2006-10-25T13:02:00,-8,2006-10-25,-8
ABC,LB,ABC-01-051,237,S8882014,HGB,Hemoglobin,URINALYSIS,NEGATIVE,,,,NEGATIVE,,,,,,,,Y,1,DAY 1,2006-11-02T13:35:00,1,2006-11-02,1
ABC,LB,ABC-01-051,238,S1817610,HGB,Hemoglobin,URINALYSIS,NEGATIVE,,,,NEGATIVE,,,,,,,,,2,WEEK 2,2006-11-16T09:50:00,15,2006-11-16,15
ABC,LB,ABC-01-051,239,S4406803,HGB,Hemoglobin,URINALYSIS,NEGATIVE,,,,NEGATIVE,,,,,,,,,6,WEEK 6,2006-12-14T08:20:00,43,2006-12-14,43
ABC,LB,ABC-01-051,240,S0002167,HGB,Hemoglobin,URINALYSIS,NEGATIVE,,,,NEGATIVE,,,,,,,,,12,WEEK 12,2007-01-30T12:18:00,90,2007-01-30,90
ABC,LB,ABC-01-051,241,S2994491,KETONES,Ketones,URINALYSIS,NEGATIVE,,,,NEGATIVE,,,,,,,,,0,SCREENING,2006-10-25T13:02:00,-8,2006-10-25,-8
ABC,LB,ABC-01-051,242,S8882014,KETONES,Ketones,URINALYSIS,NEGATIVE,,,,NEGATIVE,,,,,,,,Y,1,DAY 1,2006-11-02T13:35:00,1,2006-11-02,1
ABC,LB,ABC-01-051,243,S1817610,KETONES,Ketones,URINALYSIS,NEGATIVE,,,,NEGATIVE,,,,,,,,,2,WEEK 2,2006-11-16T09:50:00,15,2006-11-16,15
ABC,LB,ABC-01-051,244,S4406803,KETONES,Ketones,URINALYSIS,NEGATIVE,,,,NEGATIVE,,,,,,,,,6,WEEK 6,2006-12-14T08:20:00,43,2006-12-14,43
ABC,LB,ABC-01-051,245,S0002167,KETONES,Ketones,URINALYSIS,NEGATIVE,,,,NEGATIVE,,,,,,,,,12,WEEK 12,2007-01-30T12:18:00,90,2007-01-30,90
ABC,LB,ABC-01-051,246,S2994491,MICRO,Microscopy,URINALYSIS,NORMAL,,,,NORMAL,,,,,,,,,0,SCREENING,2006-10-25T13:02:00,-8,2006-10-25,-8
ABC,LB,ABC-01-051,247,S8882014,MICRO,Microscopy,URINALYSIS,NORMAL,,,,NORMAL,,,,,,,,Y,1,DAY 1,2006-11-02T13:35:00,1,2006-11-02,1
ABC,LB,ABC-01-051,248,S1817610,MICRO,Microscopy,URINALYSIS,NORMAL,,,,NORMAL,,,,,,,,,2,WEEK 2,2006-11-16T09:50:00,15,2006-11-16,15
ABC,LB,ABC-01-051,249,S4406803,MICRO,Microscopy,URINALYSIS,NORMAL,,,,NORMAL,,,,,,,,,6,WEEK 6,2006-12-14T08:20:00,43,2006-12-14,43
ABC,LB,ABC-01-051,250,S0002167,MICRO,Microscopy,URINALYSIS,NORMAL,,,,NORMAL,,,,,,,,,12,WEEK 12,2007-01-30T12:18:00,90,2007-01-30,90
ABC,LB,ABC-01-051,251,S2994491,NITRITE,Nitrite,URINALYSIS,NEGATIVE,,,,NEGATIVE,,,,,,,,,0,SCREENING,2006-10-25T13:02:00,-8,2006-10-25,-8
ABC,LB,ABC-01-051,252,S8882014,NITRITE,Nitrite,URINALYSIS,NEGATIVE,,,,NEGATIVE,,,,,,,,Y,1,DAY 1,2006-11-02T13:35:00,1,2006-11-02,1
ABC,LB,ABC-01-051,253,S1817610,NITRITE,Nitrite,URINALYSIS,NEGATIVE,,,,NEGATIVE,,,,,,,,,2,WEEK 2,2006-11-16T09:50:00,15,2006-11-16,15
ABC,LB,ABC-01-051,254,S4406803,NITRITE,Nitrite,URINALYSIS,NEGATIVE,,,,NEGATIVE,,,,,,,,,6,WEEK 6,2006-12-14T08:20:00,43,2006-12-14,43
ABC,LB,ABC-01-051,255,S0002167,NITRITE,Nitrite,URINALYSIS,NEGATIVE,,,,NEGATIVE,,,,,,,,,12,WEEK 12,2007-01-30T12:18:00,90,2007-01-30,90
ABC,LB,ABC-01-051,256,S2994491,PH,pH,URINALYSIS,7.0,,,,7.0,7,,,,,,,,0,SCREENING,2006-10-25T13:02:00,-8,2006-10-25,-8
ABC,LB,ABC-01-051,257,S8882014,PH,pH,URINALYSIS,6.5,,,,6.5,6.5,,,,,,,Y,1,DAY 1,2006-11-02T13:35:00,1,2006-11-02,1
ABC,LB,ABC-01-051,258,S1817610,PH,pH,URINALYSIS,7.0,,,,7.0,7,,,,,,,,2,WEEK 2,2006-11-16T09:50:00,15,2006-11-16,15
ABC,LB,ABC-01-051,259,S4406803,PH,pH,URINALYSIS,6.5,,,,6.5,6.5,,,,,,,,6,WEEK 6,2006-12-14T08:20:00,43,2006-12-14,43
ABC,LB,ABC-01-051,260,S0002167,PH,pH,URINALYSIS,7.0,,,,7.0,7,,,,,,,,12,WEEK 12,2007-01-30T12:18:00,90,2007-01-30,90
ABC,LB,ABC-01-051,261,S8577815,PHOSCONC,Phosphate Concentration,URINALYSIS,70,mg/dL,,,70.0,70,mg/dL,,,,,,,0,SCREENING,2006-10-25T13:02:00,-8,2006-10-25,-8
ABC,LB,ABC-01-051,262,S3016810,PHOSCONC,Phosphate Concentration,URINALYSIS,40,mg/dL,,,40.0,40,mg/dL,,,,,,Y,1,DAY 1,2006-11-02T13:35:00,1,2006-11-02,1
ABC,LB,ABC-01-051,263,S5022422,PHOSCONC,Phosphate Concentration,URINALYSIS,12,mg/dL,,,12.0,12,mg/dL,,,,,,,2,WEEK 2,2006-11-16T09:50:00,15,2006-11-16,15
ABC,LB,ABC-01-051,264,S7588814,PHOSCONC,Phosphate Concentration,URINALYSIS,26,mg/dL,,,26.0,26,mg/dL,,,,,,,6,WEEK 6,2006-12-14T08:20:00,43,2006-12-14,43
ABC,LB,ABC-01-051,265,S7725769,PHOSCONC,Phosphate Concentration,URINALYSIS,34,mg/dL,,,34.0,34,mg/dL,,,,,,,12,WEEK 12,2007-01-30T12:18:00,90,2007-01-30,90
ABC,LB,ABC-01-051,266,S2994491,PROT,Protein,URINALYSIS,NEGATIVE,,,,NEGATIVE,,,,,,,,,0,SCREENING,2006-10-25T13:02:00,-8,2006-10-25,-8
ABC,LB,ABC-01-051,267,S8882014,PROT,Protein,URINALYSIS,NEGATIVE,,,,NEGATIVE,,,,,,,,Y,1,DAY 1,2006-11-02T13:35:00,1,2006-11-02,1
ABC,LB,ABC-01-051,268,S1817610,PROT,Protein,URINALYSIS,NEGATIVE,,,,NEGATIVE,,,,,,,,,2,WEEK 2,2006-11-16T09:50:00,15,2006-11-16,15
ABC,LB,ABC-01-051,269,S4406803,PROT,Protein,URINALYSIS,NEGATIVE,,,,NEGATIVE,,,,,,,,,6,WEEK 6,2006-12-14T08:20:00,43,2006-12-14,43
ABC,LB,ABC-01-051,270,S0002167,PROT,Protein,URINALYSIS,NEGATIVE,,,,NEGATIVE,,,,,,,,,12,WEEK 12,2007-01-30T12:18:00,90,2007-01-30,90
ABC,LB,ABC-01-051,271,S2994491,SPGRAV,Specific Gravity,URINALYSIS,1.010,,,,1.010,1.01,,,,,,,,0,SCREENING,2006-10-25T13:02:00,-8,2006-10-25,-8
ABC,LB,ABC-01-051,272,S8882014,SPGRAV,Specific Gravity,URINALYSIS,1.010,,,,1.010,1.01,,,,,,,Y,1,DAY 1,2006-11-02T13:35:00,1,2006-11-02,1
ABC,LB,ABC-01-051,273,S1817610,SPGRAV,Specific Gravity,URINALYSIS,1.010,,,,1.010,1.01,,,,,,,,2,WEEK 2,2006-11-16T09:50:00,15,2006-11-16,15
ABC,LB,ABC-01-051,274,S4406803,SPGRAV,Specific Gravity,URINALYSIS,1.015,,,,1.015,1.015,,,,,,,,6,WEEK 6,2006-12-14T08:20:00,43,2006-12-14,43
ABC,LB,ABC-01-051,275,S0002167,SPGRAV,Specific Gravity,URINALYSIS,1.010,,,,1.010,1.01,,,,,,,,12,WEEK 12,2007-01-30T12:18:00,90,2007-01-30,90
ABC,LB,ABC-01-051,276,S2994491,UROBIL,Urobilinogen,URINALYSIS,NORMAL,,,,NORMAL,,,,,,,,,0,SCREENING,2006-10-25T13:02:00,-8,2006-10-25,-8
ABC,LB,ABC-01-051,277,S8882014,UROBIL,Urobilinogen,URINALYSIS,NORMAL,,,,NORMAL,,,,,,,,Y,1,DAY 1,2006-11-02T13:35:00,1,2006-11-02,1
ABC,LB,ABC-01-051,278,S1817610,UROBIL,Urobilinogen,URINALYSIS,NORMAL,,,,NORMAL,,,,,,,,,2,WEEK 2,2006-11-16T09:50:00,15,2006-11-16,15
ABC,LB,ABC-01-051,279,S4406803,UROBIL,Urobilinogen,URINALYSIS,NORMAL,,,,NORMAL,,,,,,,,,6,WEEK 6,2006-12-14T08:20:00,43,2006-12-14,43
ABC,LB,ABC-01-051,280,S0002167,UROBIL,Urobilinogen,URINALYSIS,NORMAL,,,,NORMAL,,,,,,,,,12,WEEK 12,2007-01-30T12:18:00,90,2007-01-30,90
ABC,LB,ABC-01-052,1,S3529296,ALB,Albumin,CHEMISTRY,4.5,g/dL,3.5,5.0,4.5,4.5,g/dL,3.5,5,NORMAL,,,,0,SCREENING,2006-10-31T11:12:00,-6,2006-10-31,-6
ABC,LB,ABC-01-052,2,S2035878,ALB,Albumin,CHEMISTRY,4.6,g/dL,3.5,5.0,4.6,4.6,g/dL,3.5,5,NORMAL,,,Y,1,DAY 1,2006-11-06T11:18:00,1,2006-11-06,1
ABC,LB,ABC-01-052,3,S4985648,ALB,Albumin,CHEMISTRY,4.7,g/dL,3.5,5.0,4.7,4.7,g/dL,3.5,5,NORMAL,,,,2,WEEK 2,2006-11-27T09:50:00,22,2006-11-22,17
ABC,LB,ABC-01-052,4,S4048272,ALB,Albumin,CHEMISTRY,4.6,g/dL,3.5,5.0,4.6,4.6,g/dL,3.5,5,NORMAL,,,,6,WEEK 6,2006-12-21T09:30:00,46,2006-12-21,46
ABC,LB,ABC-01-052,5,S6605321,ALB,Albumin,CHEMISTRY,4.6,g/dL,3.5,5.0,4.6,4.6,g/dL,3.5,5,NORMAL,,,,12,WEEK 12,2007-01-30T10:30:00,86,2007-01-30,86
ABC,LB,ABC-01-052,6,S3207126,ALB,Albumin,CHEMISTRY,4.5,g/dL,3.5,5.0,4.5,4.5,g/dL,3.5,5,NORMAL,,,,100,UNSCHEDULED 2,2006-11-29T13:04:00,24,2006-11-29,24
ABC,LB,ABC-01-052,7,S3529296,ALP,Alkaline Phosphatase,CHEMISTRY,83,U/L,37,98,83,83,U/L,37,98,NORMAL,,,,0,SCREENING,2006-10-31T11:12:00,-6,2006-10-31,-6
ABC,LB,ABC-01-052,8,S2035878,ALP,Alkaline Phosphatase,CHEMISTRY,84,U/L,37,98,84,84,U/L,37,98,NORMAL,,,Y,1,DAY 1,2006-11-06T11:18:00,1,2006-11-06,1
ABC,LB,ABC-01-052,9,S4985648,ALP,Alkaline Phosphatase,CHEMISTRY,89,U/L,37,98,89,89,U/L,37,98,NORMAL,,,,2,WEEK 2,2006-11-27T09:50:00,22,2006-11-22,17
ABC,LB,ABC-01-052,10,S4048272,ALP,Alkaline Phosphatase,CHEMISTRY,88,U/L,37,98,88,88,U/L,37,98,NORMAL,,,,6,WEEK 6,2006-12-21T09:30:00,46,2006-12-21,46
ABC,LB,ABC-01-052,11,S6605321,ALP,Alkaline Phosphatase,CHEMISTRY,83,U/L,37,98,83,83,U/L,37,98,NORMAL,,,,12,WEEK 12,2007-01-30T10:30:00,86,2007-01-30,86
ABC,LB,ABC-01-052,12,S3207126,ALP,Alkaline Phosphatase,CHEMISTRY,83,U/L,37,98,83,83,U/L,37,98,NORMAL,,,,100,UNSCHEDULED 2,2006-11-29T13:04:00,24,2006-11-29,24
ABC,LB,ABC-01-052,13,S3529296,ALT,Alanine Aminotransferase,CHEMISTRY,38,U/L,9,29,38,38,U/L,9,29,HIGH,,,,0,SCREENING,2006-10-31T11:12:00,-6,2006-10-31,-6
ABC,LB,ABC-01-052,14,S2035878,ALT,Alanine Aminotransferase,CHEMISTRY,29,U/L,9,29,29,29,U/L,9,29,NORMAL,,,Y,1,DAY 1,2006-11-06T11:18:00,1,2006-11-06,1
ABC,LB,ABC-01-052,15,S4985648,ALT,Alanine Aminotransferase,CHEMISTRY,34,U/L,9,29,34,34,U/L,9,29,HIGH,,,,2,WEEK 2,2006-11-27T09:50:00,22,2006-11-22,17
ABC,LB,ABC-01-052,16,S4048272,ALT,Alanine Aminotransferase,CHEMISTRY,41,U/L,9,29,41,41,U/L,9,29,HIGH,,,,6,WEEK 6,2006-12-21T09:30:00,46,2006-12-21,46
ABC,LB,ABC-01-052,17,S6605321,ALT,Alanine Aminotransferase,CHEMISTRY,38,U/L,9,29,38,38,U/L,9,29,HIGH,,,,12,WEEK 12,2007-01-30T10:30:00,86,2007-01-30,86
ABC,LB,ABC-01-052,18,S3207126,ALT,Alanine Aminotransferase,CHEMISTRY,34,U/L,9,29,34,34,U/L,9,29,HIGH,,,,100,UNSCHEDULED 2,2006-11-29T13:04:00,24,2006-11-29,24
ABC,LB,ABC-01-052,19,S3529296,AST,Aspartate Aminotransferase,CHEMISTRY,34,U/L,12,31,34,34,U/L,12,31,HIGH,,,,0,SCREENING,2006-10-31T11:12:00,-6,2006-10-31,-6
ABC,LB,ABC-01-052,20,S2035878,AST,Aspartate Aminotransferase,CHEMISTRY,31,U/L,12,31,31,31,U/L,12,31,NORMAL,,,Y,1,DAY 1,2006-11-06T11:18:00,1,2006-11-06,1
ABC,LB,ABC-01-052,21,S4985648,AST,Aspartate Aminotransferase,CHEMISTRY,33,U/L,12,31,33,33,U/L,12,31,HIGH,,,,2,WEEK 2,2006-11-27T09:50:00,22,2006-11-22,17
ABC,LB,ABC-01-052,22,S4048272,AST,Aspartate Aminotransferase,CHEMISTRY,33,U/L,12,31,33,33,U/L,12,31,HIGH,,,,6,WEEK 6,2006-12-21T09:30:00,46,2006-12-21,46
ABC,LB,ABC-01-052,23,S6605321,AST,Aspartate Aminotransferase,CHEMISTRY,31,U/L,12,31,31,31,U/L,12,31,NORMAL,,,,12,WEEK 12,2007-01-30T10:30:00,86,2007-01-30,86
ABC,LB,ABC-01-052,24,S3207126,AST,Aspartate Aminotransferase,CHEMISTRY,33,U/L,12,31,33,33,U/L,12,31,HIGH,,,,100,UNSCHEDULED 2,2006-11-29T13:04:00,24,2006-11-29,24
ABC,LB,ABC-01-052,25,S3529296,BILI,Bilirubin,CHEMISTRY,0.5,mg/dL,0.1,1.0,0.5,0.5,mg/dL,0.1,1,NORMAL,,,,0,SCREENING,2006-10-31T11:12:00,-6,2006-10-31,-6
ABC,LB,ABC-01-052,26,S2035878,BILI,Bilirubin,CHEMISTRY,0.4,mg/dL,0.1,1.0,0.4,0.4,mg/dL,0.1,1,NORMAL,,,Y,1,DAY 1,2006-11-06T11:18:00,1,2006-11-06,1
ABC,LB,ABC-01-052,27,S4985648,BILI,Bilirubin,CHEMISTRY,0.9,mg/dL,0.1,1.0,0.9,0.9,mg/dL,0.1,1,NORMAL,,,,2,WEEK 2,2006-11-27T09:50:00,22,2006-11-22,17
ABC,LB,ABC-01-052,28,S4048272,BILI,Bilirubin,CHEMISTRY,0.4,mg/dL,0.1,1.0,0.4,0.4,mg/dL,0.1,1,NORMAL,,,,6,WEEK 6,2006-12-21T09:30:00,46,2006-12-21,46
ABC,LB,ABC-01-052,29,S6605321,BILI,Bilirubin,CHEMISTRY,0.4,mg/dL,0.1,1.0,0.4,0.4,mg/dL,0.1,1,NORMAL,,,,12,WEEK 12,2007-01-30T10:30:00,86,2007-01-30,86
ABC,LB,ABC-01-052,30,S3207126,BILI,Bilirubin,CHEMISTRY,0.5,mg/dL,0.1,1.0,0.5,0.5,mg/dL,0.1,1,NORMAL,,,,100,UNSCHEDULED 2,2006-11-29T13:04:00,24,2006-11-29,24
ABC,LB,ABC-01-052,31,S3529296,BUN,Blood Urea Nitrogen,CHEMISTRY,12,mg/dL,6,21,12,12,mg/dL,6,21,NORMAL,,,,0,SCREENING,2006-10-31T11:12:00,-6,2006-10-31,-6
ABC,LB,ABC-01-052,32,S2035878,BUN,Blood Urea Nitrogen,CHEMISTRY,13,mg/dL,6,21,13,13,mg/dL,6,21,NORMAL,,,Y,1,DAY 1,2006-11-06T11:18:00,1,2006-11-06,1
ABC,LB,ABC-01-052,33,S4985648,BUN,Blood Urea Nitrogen,CHEMISTRY,9,mg/dL,6,21,9,9,mg/dL,6,21,NORMAL,,,,2,WEEK 2,2006-11-27T09:50:00,22,2006-11-22,17
ABC,LB,ABC-01-052,34,S4048272,BUN,Blood Urea Nitrogen,CHEMISTRY,15,mg/dL,6,21,15,15,mg/dL,6,21,NORMAL,,,,6,WEEK 6,2006-12-21T09:30:00,46,2006-12-21,46
ABC,LB,ABC-01-052,35,S6605321,BUN,Blood Urea Nitrogen,CHEMISTRY,12,mg/dL,6,21,12,12,mg/dL,6,21,NORMAL,,,,12,WEEK 12,2007-01-30T10:30:00,86,2007-01-30,86
ABC,LB,ABC-01-052,36,S3207126,BUN,Blood Urea Nitrogen,CHEMISTRY,14,mg/dL,6,21,14,14,mg/dL,6,21,NORMAL,,,,100,UNSCHEDULED 2,2006-11-29T13:04:00,24,2006-11-29,24
ABC,LB,ABC-01-052,37,S3529296,CA,Calcium,CHEMISTRY,9.3,mg/dL,8.9,10.1,9.3,9.3,mg/dL,8.9,10.1,NORMAL,,,,0,SCREENING,2006-10-31T11:12:00,-6,2006-10-31,-6
ABC,LB,ABC-01-052,38,S2035878,CA,Calcium,CHEMISTRY,9.4,mg/dL,8.9,10.1,9.4,9.4,mg/dL,8.9,10.1,NORMAL,,,Y,1,DAY 1,2006-11-06T11:18:00,1,2006-11-06,1
ABC,LB,ABC-01-052,39,S4985648,CA,Calcium,CHEMISTRY,9.9,mg/dL,8.9,10.1,9.9,9.9,mg/dL,8.9,10.1,NORMAL,,,,2,WEEK 2,2006-11-27T09:50:00,22,2006-11-22,17
ABC,LB,ABC-01-052,40,S4048272,CA,Calcium,CHEMISTRY,9.3,mg/dL,8.9,10.1,9.3,9.3,mg/dL,8.9,10.1,NORMAL,,,,6,WEEK 6,2006-12-21T09:30:00,46,2006-12-21,46
ABC,LB,ABC-01-052,41,S6605321,CA,Calcium,CHEMISTRY,9.5,mg/dL,8.9,10.1,9.5,9.5,mg/dL,8.9,10.1,NORMAL,,,,12,WEEK 12,2007-01-30T10:30:00,86,2007-01-30,86
ABC,LB,ABC-01-052,42,S3207126,CA,Calcium,CHEMISTRY,9.4,mg/dL,8.9,10.1,9.4,9.4,mg/dL,8.9,10.1,NORMAL,,,,100,UNSCHEDULED 2,2006-11-29T13:04:00,24,2006-11-29,24
ABC,LB,ABC-01-052,43,S3529296,CHOL,Cholesterol,CHEMISTRY,217,mg/dL,0,239,217,217,mg/dL,0,239,NORMAL,,,,0,SCREENING,2006-10-31T11:12:00,-6,2006-10-31,-6
ABC,LB,ABC-01-052,44,S2035878,CHOL,Cholesterol,CHEMISTRY,206,mg/dL,0,239,206,206,mg/dL,0,239,NORMAL,,,Y,1,DAY 1,2006-11-06T11:18:00,1,2006-11-06,1
ABC,LB,ABC-01-052,45,S4985648,CHOL,Cholesterol,CHEMISTRY,226,mg/dL,0,239,226,226,mg/dL,0,239,NORMAL,,,,2,WEEK 2,2006-11-27T09:50:00,22,2006-11-22,17
ABC,LB,ABC-01-052,46,S4048272,CHOL,Cholesterol,CHEMISTRY,223,mg/dL,0,239,223,223,mg/dL,0,239,NORMAL,,,,6,WEEK 6,2006-12-21T09:30:00,46,2006-12-21,46
ABC,LB,ABC-01-052,47,S6605321,CHOL,Cholesterol,CHEMISTRY,240,mg/dL,0,239,240,240,mg/dL,0,239,HIGH,,,,12,WEEK 12,2007-01-30T10:30:00,86,2007-01-30,86
ABC,LB,ABC-01-052,48,S3207126,CHOL,Cholesterol,CHEMISTRY,201,mg/dL,0,239,201,201,mg/dL,0,239,NORMAL,,,,100,UNSCHEDULED 2,2006-11-29T13:04:00,24,2006-11-29,24
ABC,LB,ABC-01-052,49,S3529296,CL,Chloride,CHEMISTRY,105,mmol/L,100,108,105,105,mmol/L,100,108,NORMAL,,,,0,SCREENING,2006-10-31T11:12:00,-6,2006-10-31,-6
ABC,LB,ABC-01-052,50,S2035878,CL,Chloride,CHEMISTRY,104,mmol/L,100,108,104,104,mmol/L,100,108,NORMAL,,,Y,1,DAY 1,2006-11-06T11:18:00,1,2006-11-06,1
ABC,LB,ABC-01-052,51,S4985648,CL,Chloride,CHEMISTRY,101,mmol/L,100,108,101,101,mmol/L,100,108,NORMAL,,,,2,WEEK 2,2006-11-27T09:50:00,22,2006-11-22,17
ABC,LB,ABC-01-052,52,S4048272,CL,Chloride,CHEMISTRY,103,mmol/L,100,108,103,103,mmol/L,100,108,NORMAL,,,,6,WEEK 6,2006-12-21T09:30:00,46,2006-12-21,46
ABC,LB,ABC-01-052,53,S6605321,CL,Chloride,CHEMISTRY,104,mmol/L,100,108,104,104,mmol/L,100,108,NORMAL,,,,12,WEEK 12,2007-01-30T10:30:00,86,2007-01-30,86
ABC,LB,ABC-01-052,54,S3207126,CL,Chloride,CHEMISTRY,105,mmol/L,100,108,105,105,mmol/L,100,108,NORMAL,,,,100,UNSCHEDULED 2,2006-11-29T13:04:00,24,2006-11-29,24
ABC,LB,ABC-01-052,55,S3529296,CREAT,Creatinine,CHEMISTRY,0.9,mg/dL,0.7,1.2,0.9,0.9,mg/dL,0.7,1.2,NORMAL,,,,0,SCREENING,2006-10-31T11:12:00,-6,2006-10-31,-6
ABC,LB,ABC-01-052,56,S2035878,CREAT,Creatinine,CHEMISTRY,0.9,mg/dL,0.7,1.2,0.9,0.9,mg/dL,0.7,1.2,NORMAL,,,Y,1,DAY 1,2006-11-06T11:18:00,1,2006-11-06,1
ABC,LB,ABC-01-052,57,S4985648,CREAT,Creatinine,CHEMISTRY,1.0,mg/dL,0.7,1.2,1.0,1,mg/dL,0.7,1.2,NORMAL,,,,2,WEEK 2,2006-11-27T09:50:00,22,2006-11-22,17
ABC,LB,ABC-01-052,58,S4048272,CREAT,Creatinine,CHEMISTRY,0.9,mg/dL,0.7,1.2,0.9,0.9,mg/dL,0.7,1.2,NORMAL,,,,6,WEEK 6,2006-12-21T09:30:00,46,2006-12-21,46
ABC,LB,ABC-01-052,59,S6605321,CREAT,Creatinine,CHEMISTRY,0.9,mg/dL,0.7,1.2,0.9,0.9,mg/dL,0.7,1.2,NORMAL,,,,12,WEEK 12,2007-01-30T10:30:00,86,2007-01-30,86
ABC,LB,ABC-01-052,60,S3207126,CREAT,Creatinine,CHEMISTRY,1.0,mg/dL,0.7,1.2,1.0,1,mg/dL,0.7,1.2,NORMAL,,,,100,UNSCHEDULED 2,2006-11-29T13:04:00,24,2006-11-29,24
ABC,LB,ABC-01-052,61,S3529296,GLUC,Glucose,CHEMISTRY,110,mg/dL,70,100,110,110,mg/dL,70,100,HIGH,,,,0,SCREENING,2006-10-31T11:12:00,-6,2006-10-31,-6
ABC,LB,ABC-01-052,62,S2035878,GLUC,Glucose,CHEMISTRY,86,mg/dL,70,100,86,86,mg/dL,70,100,NORMAL,,,Y,1,DAY 1,2006-11-06T11:18:00,1,2006-11-06,1
ABC,LB,ABC-01-052,63,S4985648,GLUC,Glucose,CHEMISTRY,80,mg/dL,70,100,80,80,mg/dL,70,100,NORMAL,,,,2,WEEK 2,2006-11-27T09:50:00,22,2006-11-22,17
ABC,LB,ABC-01-052,64,S4048272,GLUC,Glucose,CHEMISTRY,85,mg/dL,70,100,85,85,mg/dL,70,100,NORMAL,,,,6,WEEK 6,2006-12-21T09:30:00,46,2006-12-21,46
ABC,LB,ABC-01-052,65,S6605321,GLUC,Glucose,CHEMISTRY,79,mg/dL,70,100,79,79,mg/dL,70,100,NORMAL,,,,12,WEEK 12,2007-01-30T10:30:00,86,2007-01-30,86
ABC,LB,ABC-01-052,66,S3207126,GLUC,Glucose,CHEMISTRY,102,mg/dL,70,100,102,102,mg/dL,70,100,HIGH,,,,100,UNSCHEDULED 2,2006-11-29T13:04:00,24,2006-11-29,24
ABC,LB,ABC-01-052,67,S3529296,K,Potassium,CHEMISTRY,3.8,mmol/L,3.6,4.8,3.8,3.8,mmol/L,3.6,4.8,NORMAL,,,,0,SCREENING,2006-10-31T11:12:00,-6,2006-10-31,-6
ABC,LB,ABC-01-052,68,S2035878,K,Potassium,CHEMISTRY,3.8,mmol/L,3.6,4.8,3.8,3.8,mmol/L,3.6,4.8,NORMAL,,,Y,1,DAY 1,2006-11-06T11:18:00,1,2006-11-06,1
ABC,LB,ABC-01-052,69,S4985648,K,Potassium,CHEMISTRY,3.6,mmol/L,3.6,4.8,3.6,3.6,mmol/L,3.6,4.8,NORMAL,,,,2,WEEK 2,2006-11-27T09:50:00,22,2006-11-22,17
ABC,LB,ABC-01-052,70,S4048272,K,Potassium,CHEMISTRY,3.8,mmol/L,3.6,4.8,3.8,3.8,mmol/L,3.6,4.8,NORMAL,,,,6,WEEK 6,2006-12-21T09:30:00,46,2006-12-21,46
ABC,LB,ABC-01-052,71,S6605321,K,Potassium,CHEMISTRY,3.8,mmol/L,3.6,4.8,3.8,3.8,mmol/L,3.6,4.8,NORMAL,,,,12,WEEK 12,2007-01-30T10:30:00,86,2007-01-30,86
ABC,LB,ABC-01-052,72,S3207126,K,Potassium,CHEMISTRY,3.3,mmol/L,3.6,4.8,3.3,3.3,mmol/L,3.6,4.8,LOW,,,,100,UNSCHEDULED 2,2006-11-29T13:04:00,24,2006-11-29,24
ABC,LB,ABC-01-052,73,S3529296,LIPASE,Triacylglycerol Lipase,CHEMISTRY,37,U/L,10,73,37,37,U/L,10,73,NORMAL,,,,0,SCREENING,2006-10-31T11:12:00,-6,2006-10-31,-6
ABC,LB,ABC-01-052,74,S2035878,LIPASE,Triacylglycerol Lipase,CHEMISTRY,31,U/L,10,73,31,31,U/L,10,73,NORMAL,,,Y,1,DAY 1,2006-11-06T11:18:00,1,2006-11-06,1
ABC,LB,ABC-01-052,75,S4985648,LIPASE,Triacylglycerol Lipase,CHEMISTRY,40,U/L,10,73,40,40,U/L,10,73,NORMAL,,,,2,WEEK 2,2006-11-27T09:50:00,22,2006-11-22,17
ABC,LB,ABC-01-052,76,S4048272,LIPASE,Triacylglycerol Lipase,CHEMISTRY,51,U/L,10,73,51,51,U/L,10,73,NORMAL,,,,6,WEEK 6,2006-12-21T09:30:00,46,2006-12-21,46
ABC,LB,ABC-01-052,77,S6605321,LIPASE,Triacylglycerol Lipase,CHEMISTRY,42,U/L,10,73,42,42,U/L,10,73,NORMAL,,,,12,WEEK 12,2007-01-30T10:30:00,86,2007-01-30,86
ABC,LB,ABC-01-052,78,S3207126,LIPASE,Triacylglycerol Lipase,CHEMISTRY,41,U/L,10,73,41,41,U/L,10,73,NORMAL,,,,100,UNSCHEDULED 2,2006-11-29T13:04:00,24,2006-11-29,24
ABC,LB,ABC-01-052,79,S3529296,PHOS,Phosphate,CHEMISTRY,3.6,mg/dL,2.5,4.5,3.6,3.6,mg/dL,2.5,4.5,NORMAL,,,,0,SCREENING,2006-10-31T11:12:00,-6,2006-10-31,-6
ABC,LB,ABC-01-052,80,S2035878,PHOS,Phosphate,CHEMISTRY,4.0,mg/dL,2.5,4.5,4.0,4,mg/dL,2.5,4.5,NORMAL,,,Y,1,DAY 1,2006-11-06T11:18:00,1,2006-11-06,1
ABC,LB,ABC-01-052,81,S4985648,PHOS,Phosphate,CHEMISTRY,4.2,mg/dL,2.5,4.5,4.2,4.2,mg/dL,2.5,4.5,NORMAL,,,,2,WEEK 2,2006-11-27T09:50:00,22,2006-11-22,17
ABC,LB,ABC-01-052,82,S4048272,PHOS,Phosphate,CHEMISTRY,3.8,mg/dL,2.5,4.5,3.8,3.8,mg/dL,2.5,4.5,NORMAL,,,,6,WEEK 6,2006-12-21T09:30:00,46,2006-12-21,46
ABC,LB,ABC-01-052,83,S6605321,PHOS,Phosphate,CHEMISTRY,3.6,mg/dL,2.5,4.5,3.6,3.6,mg/dL,2.5,4.5,NORMAL,,,,12,WEEK 12,2007-01-30T10:30:00,86,2007-01-30,86
ABC,LB,ABC-01-052,84,S3207126,PHOS,Phosphate,CHEMISTRY,3.7,mg/dL,2.5,4.5,3.7,3.7,mg/dL,2.5,4.5,NORMAL,,,,100,UNSCHEDULED 2,2006-11-29T13:04:00,24,2006-11-29,24
ABC,LB,ABC-01-052,85,S3529296,PROT,Protein,CHEMISTRY,6.7,g/dL,6.3,7.9,6.7,6.7,g/dL,6.3,7.9,NORMAL,,,,0,SCREENING,2006-10-31T11:12:00,-6,2006-10-31,-6
ABC,LB,ABC-01-052,86,S2035878,PROT,Protein,CHEMISTRY,6.7,g/dL,6.3,7.9,6.7,6.7,g/dL,6.3,7.9,NORMAL,,,Y,1,DAY 1,2006-11-06T11:18:00,1,2006-11-06,1
ABC,LB,ABC-01-052,87,S4985648,PROT,Protein,CHEMISTRY,7.0,g/dL,6.3,7.9,7.0,7,g/dL,6.3,7.9,NORMAL,,,,2,WEEK 2,2006-11-27T09:50:00,22,2006-11-22,17
ABC,LB,ABC-01-052,88,S4048272,PROT,Protein,CHEMISTRY,6.9,g/dL,6.3,7.9,6.9,6.9,g/dL,6.3,7.9,NORMAL,,,,6,WEEK 6,2006-12-21T09:30:00,46,2006-12-21,46
ABC,LB,ABC-01-052,89,S6605321,PROT,Protein,CHEMISTRY,6.9,g/dL,6.3,7.9,6.9,6.9,g/dL,6.3,7.9,NORMAL,,,,12,WEEK 12,2007-01-30T10:30:00,86,2007-01-30,86
ABC,LB,ABC-01-052,90,S3207126,PROT,Protein,CHEMISTRY,6.5,g/dL,6.3,7.9,6.5,6.5,g/dL,6.3,7.9,NORMAL,,,,100,UNSCHEDULED 2,2006-11-29T13:04:00,24,2006-11-29,24
ABC,LB,ABC-01-052,91,S3529296,SODIUM,Sodium,CHEMISTRY,141,mmol/L,135,145,141,141,mmol/L,135,145,NORMAL,,,,0,SCREENING,2006-10-31T11:12:00,-6,2006-10-31,-6
ABC,LB,ABC-01-052,92,S2035878,SODIUM,Sodium,CHEMISTRY,140,mmol/L,135,145,140,140,mmol/L,135,145,NORMAL,,,Y,1,DAY 1,2006-11-06T11:18:00,1,2006-11-06,1
ABC,LB,ABC-01-052,93,S4985648,SODIUM,Sodium,CHEMISTRY,138,mmol/L,135,145,138,138,mmol/L,135,145,NORMAL,,,,2,WEEK 2,2006-11-27T09:50:00,22,2006-11-22,17
ABC,LB,ABC-01-052,94,S4048272,SODIUM,Sodium,CHEMISTRY,139,mmol/L,135,145,139,139,mmol/L,135,145,NORMAL,,,,6,WEEK 6,2006-12-21T09:30:00,46,2006-12-21,46
ABC,LB,ABC-01-052,95,S6605321,SODIUM,Sodium,CHEMISTRY,142,mmol/L,135,145,142,142,mmol/L,135,145,NORMAL,,,,12,WEEK 12,2007-01-30T10:30:00,86,2007-01-30,86
ABC,LB,ABC-01-052,96,S3207126,SODIUM,Sodium,CHEMISTRY,141,mmol/L,135,145,141,141,mmol/L,135,145,NORMAL,,,,100,UNSCHEDULED 2,2006-11-29T13:04:00,24,2006-11-29,24
ABC,LB,ABC-01-052,97,S3529296,TRIG,Triglycerides,CHEMISTRY,152,mg/dL,0,199,152,152,mg/dL,0,199,NORMAL,,,,0,SCREENING,2006-10-31T11:12:00,-6,2006-10-31,-6
ABC,LB,ABC-01-052,98,S2035878,TRIG,Triglycerides,CHEMISTRY,212,mg/dL,0,199,212,212,mg/dL,0,199,HIGH,,,Y,1,DAY 1,2006-11-06T11:18:00,1,2006-11-06,1
ABC,LB,ABC-01-052,99,S4985648,TRIG,Triglycerides,CHEMISTRY,110,mg/dL,0,199,110,110,mg/dL,0,199,NORMAL,,,,2,WEEK 2,2006-11-27T09:50:00,22,2006-11-22,17
ABC,LB,ABC-01-052,100,S4048272,TRIG,Triglycerides,CHEMISTRY,217,mg/dL,0,199,217,217,mg/dL,0,199,HIGH,,,,6,WEEK 6,2006-12-21T09:30:00,46,2006-12-21,46
ABC,LB,ABC-01-052,101,S6605321,TRIG,Triglycerides,CHEMISTRY,168,mg/dL,0,199,168,168,mg/dL,0,199,NORMAL,,,,12,WEEK 12,2007-01-30T10:30:00,86,2007-01-30,86
ABC,LB,ABC-01-052,102,S3207126,TRIG,Triglycerides,CHEMISTRY,227,mg/dL,0,199,227,227,mg/dL,0,199,HIGH,,,,100,UNSCHEDULED 2,2006-11-29T13:04:00,24,2006-11-29,24
ABC,LB,ABC-01-052,103,S3529296,URATE,Uric Acid,CHEMISTRY,3.3,mg/dL,2.3,6.0,3.3,3.3,mg/dL,2.3,6,NORMAL,,,,0,SCREENING,2006-10-31T11:12:00,-6,2006-10-31,-6
ABC,LB,ABC-01-052,104,S2035878,URATE,Uric Acid,CHEMISTRY,3.6,mg/dL,2.3,6.0,3.6,3.6,mg/dL,2.3,6,NORMAL,,,Y,1,DAY 1,2006-11-06T11:18:00,1,2006-11-06,1
ABC,LB,ABC-01-052,105,S4985648,URATE,Uric Acid,CHEMISTRY,4.0,mg/dL,2.3,6.0,4.0,4,mg/dL,2.3,6,NORMAL,,,,2,WEEK 2,2006-11-27T09:50:00,22,2006-11-22,17
ABC,LB,ABC-01-052,106,S4048272,URATE,Uric Acid,CHEMISTRY,3.2,mg/dL,2.3,6.0,3.2,3.2,mg/dL,2.3,6,NORMAL,,,,6,WEEK 6,2006-12-21T09:30:00,46,2006-12-21,46
ABC,LB,ABC-01-052,107,S6605321,URATE,Uric Acid,CHEMISTRY,2.7,mg/dL,2.3,6.0,2.7,2.7,mg/dL,2.3,6,NORMAL,,,,12,WEEK 12,2007-01-30T10:30:00,86,2007-01-30,86
ABC,LB,ABC-01-052,108,S3207126,URATE,Uric Acid,CHEMISTRY,4.0,mg/dL,2.3,6.0,4.0,4,mg/dL,2.3,6,NORMAL,,,,100,UNSCHEDULED 2,2006-11-29T13:04:00,24,2006-11-29,24
ABC,LB,ABC-01-052,109,S0657939,HCG,Choriogonadotropin Beta,ENDOCRINE,NEGATIVE,,,,NEGATIVE,,,,,,,,Y,0,SCREENING,2006-10-31T11:12:00,-6,2006-10-31,-6
ABC,LB,ABC-01-052,110,S0216177,HCG,Choriogonadotropin Beta,ENDOCRINE,NEGATIVE,,,,NEGATIVE,,,,,,,,,100,UNSCHEDULED 2,2006-11-29T13:04:00,24,2006-11-29,24
ABC,LB,ABC-01-052,111,S5468555,OSTEOC,Osteocalcin,ENDOCRINE,23.1,ng/mL,,,23.1,23.1,ug/L,,,,,,Y,1,DAY 1,2006-11-06T11:18:00,1,2006-11-06,1
ABC,LB,ABC-01-052,112,S3921858,OSTEOC,Osteocalcin,ENDOCRINE,27.9,ng/mL,,,27.9,27.9,ug/L,,,,,,,6,WEEK 6,2006-12-21T09:30:00,46,2006-12-21,46
ABC,LB,ABC-01-052,113,S4589506,OSTEOC,Osteocalcin,ENDOCRINE,20.1,ng/mL,,,20.1,20.1,ug/L,,,,,,,12,WEEK 12,2007-01-30T10:30:00,86,2007-01-30,86
ABC,LB,ABC-01-052,114,S9586195,PTHI,"Parathyroid Hormone, Intact",ENDOCRINE,35,pg/mL,11,67,3.7,3.7,pmol/L,1.2,7,NORMAL,,,,1,DAY 1,2006-11-06T11:18:00,1,2006-11-06,1
ABC,LB,ABC-01-052,115,S9586195,PTHI,"Parathyroid Hormone, Intact",ENDOCRINE,3.7,pmol/L,1.1,7.1,3.7,3.7,pmol/L,1.1,7.1,NORMAL,,,Y,1,DAY 1,2006-11-06T11:18:00,1,2006-11-06,1
ABC,LB,ABC-01-052,116,S7087908,PTHI,"Parathyroid Hormone, Intact",ENDOCRINE,45,pg/mL,11,67,4.7,4.7,pmol/L,1.2,7,NORMAL,,,,6,WEEK 6,2006-12-21T09:30:00,46,2006-12-21,46
ABC,LB,ABC-01-052,117,S7087908,PTHI,"Parathyroid Hormone, Intact",ENDOCRINE,4.8,pmol/L,1.1,7.1,4.8,4.8,pmol/L,1.1,7.1,NORMAL,,,,6,WEEK 6,2006-12-21T09:30:00,46,2006-12-21,46
ABC,LB,ABC-01-052,118,S6638007,PTHI,"Parathyroid Hormone, Intact",ENDOCRINE,23,pg/mL,11,67,2.4,2.4,pmol/L,1.2,7,NORMAL,,,,12,WEEK 12,2007-01-30T10:30:00,86,2007-01-30,86
ABC,LB,ABC-01-052,119,S6638007,PTHI,"Parathyroid Hormone, Intact",ENDOCRINE,2.4,pmol/L,1.1,7.1,2.4,2.4,pmol/L,1.1,7.1,NORMAL,,,,12,WEEK 12,2007-01-30T10:30:00,86,2007-01-30,86
ABC,LB,ABC-01-052,120,S0289155,PTHI,"Parathyroid Hormone, Intact",ENDOCRINE,45,pg/mL,11,67,4.7,4.7,pmol/L,1.2,7,NORMAL,,,,100,UNSCHEDULED 2,2006-11-29T13:04:00,24,2006-11-29,24
ABC,LB,ABC-01-052,121,S0289155,PTHI,"Parathyroid Hormone, Intact",ENDOCRINE,4.8,pmol/L,1.1,7.1,4.8,4.8,pmol/L,1.1,7.1,NORMAL,,,,100,UNSCHEDULED 2,2006-11-29T13:04:00,24,2006-11-29,24
ABC,LB,ABC-01-052,122,S9765890,VITDAT,"1, 25-Dihydroxyvitamin D",ENDOCRINE,41,pg/mL,22,67,4.31,4.31,pmol/L,2.31,7.04,NORMAL,,,Y,1,DAY 1,2006-11-06T11:18:00,1,2006-11-06,1
ABC,LB,ABC-01-052,123,S8666551,VITDAT,"1, 25-Dihydroxyvitamin D",ENDOCRINE,50,pg/mL,22,67,5.25,5.25,pmol/L,2.31,7.04,NORMAL,,,,6,WEEK 6,2006-12-21T09:30:00,46,2006-12-21,46
ABC,LB,ABC-01-052,124,S3458129,VITDAT,"1, 25-Dihydroxyvitamin D",ENDOCRINE,41,pg/mL,22,67,4.31,4.31,pmol/L,2.31,7.04,NORMAL,,,,12,WEEK 12,2007-01-30T10:30:00,86,2007-01-30,86
ABC,LB,ABC-01-052,125,S1304370,VITDAT,"1, 25-Dihydroxyvitamin D",ENDOCRINE,35,pg/mL,22,67,3.68,3.68,pmol/L,2.31,7.04,NORMAL,,,,100,UNSCHEDULED 2,2006-11-29T13:04:00,24,2006-11-29,24
ABC,LB,ABC-01-052,126,S3482983,VITDIT,25-Hydroxyvitamin D,ENDOCRINE,36,ng/mL,25,80,36.0,36,ug/L,25,80,NORMAL,,,Y,1,DAY 1,2006-11-06T11:18:00,1,2006-11-06,1
ABC,LB,ABC-01-052,127,S1930121,VITDIT,25-Hydroxyvitamin D,ENDOCRINE,27,ng/mL,25,80,27.0,27,ug/L,25,80,NORMAL,,,,6,WEEK 6,2006-12-21T09:30:00,46,2006-12-21,46
ABC,LB,ABC-01-052,128,S5424142,VITDIT,25-Hydroxyvitamin D,ENDOCRINE,31,ng/mL,25,80,31.0,31,ug/L,25,80,NORMAL,,,,12,WEEK 12,2007-01-30T10:30:00,86,2007-01-30,86
ABC,LB,ABC-01-052,129,S4268247,VITDIT,25-Hydroxyvitamin D,ENDOCRINE,29,ng/mL,25,80,29.0,29,ug/L,25,80,NORMAL,,,,100,UNSCHEDULED 2,2006-11-29T13:04:00,24,2006-11-29,24
ABC,LB,ABC-01-052,130,S3482983,VITDIT2,25-Hydroxyvitamin D2,ENDOCRINE,<4.0,ng/mL,,,<4.0,,ug/L,,,,,,Y,1,DAY 1,2006-11-06T11:18:00,1,2006-11-06,1
ABC,LB,ABC-01-052,131,S1930121,VITDIT2,25-Hydroxyvitamin D2,ENDOCRINE,<4.0,ng/mL,,,<4.0,,ug/L,,,,,,,6,WEEK 6,2006-12-21T09:30:00,46,2006-12-21,46
ABC,LB,ABC-01-052,132,S5424142,VITDIT2,25-Hydroxyvitamin D2,ENDOCRINE,<4.0,ng/mL,,,<4.0,,ug/L,,,,,,,12,WEEK 12,2007-01-30T10:30:00,86,2007-01-30,86
ABC,LB,ABC-01-052,133,S4268247,VITDIT2,25-Hydroxyvitamin D2,ENDOCRINE,<4.0,ng/mL,,,<4.0,,ug/L,,,,,,,100,UNSCHEDULED 2,2006-11-29T13:04:00,24,2006-11-29,24
ABC,LB,ABC-01-052,134,S3482983,VITDIT3,25-Hydroxyvitamin D3,ENDOCRINE,36,ng/mL,,,36.0,36,ug/L,,,,,,Y,1,DAY 1,2006-11-06T11:18:00,1,2006-11-06,1
ABC,LB,ABC-01-052,135,S1930121,VITDIT3,25-Hydroxyvitamin D3,ENDOCRINE,27,ng/mL,,,27.0,27,ug/L,,,,,,,6,WEEK 6,2006-12-21T09:30:00,46,2006-12-21,46
ABC,LB,ABC-01-052,136,S5424142,VITDIT3,25-Hydroxyvitamin D3,ENDOCRINE,31,ng/mL,,,31.0,31,ug/L,,,,,,,12,WEEK 12,2007-01-30T10:30:00,86,2007-01-30,86
ABC,LB,ABC-01-052,137,S4268247,VITDIT3,25-Hydroxyvitamin D3,ENDOCRINE,29,ng/mL,,,29.0,29,ug/L,,,,,,,100,UNSCHEDULED 2,2006-11-29T13:04:00,24,2006-11-29,24
ABC,LB,ABC-01-052,138,S8744270,BASO,Basophils,HEMATOLOGY,0.06,x10(9)/L,0.00,0.30,0.06,0.06,10^9/L,0,0.3,NORMAL,,,,0,SCREENING,2006-10-31T11:12:00,-6,2006-10-31,-6
ABC,LB,ABC-01-052,139,S5250688,BASO,Basophils,HEMATOLOGY,0.03,x10(9)/L,0.00,0.30,0.03,0.03,10^9/L,0,0.3,NORMAL,,,Y,1,DAY 1,2006-11-06T11:18:00,1,2006-11-06,1
ABC,LB,ABC-01-052,140,S4389084,BASO,Basophils,HEMATOLOGY,0.04,x10(9)/L,0.00,0.30,0.04,0.04,10^9/L,0,0.3,NORMAL,,,,2,WEEK 2,2006-11-27T09:50:00,22,2006-11-22,17
ABC,LB,ABC-01-052,141,S8039109,BASO,Basophils,HEMATOLOGY,0.03,x10(9)/L,0.00,0.30,0.03,0.03,10^9/L,0,0.3,NORMAL,,,,6,WEEK 6,2006-12-21T09:30:00,46,2006-12-21,46
ABC,LB,ABC-01-052,142,S6381884,BASO,Basophils,HEMATOLOGY,0.02,x10(9)/L,0.00,0.30,0.02,0.02,10^9/L,0,0.3,NORMAL,,,,12,WEEK 12,2007-01-30T10:30:00,86,2007-01-30,86
ABC,LB,ABC-01-052,143,S3087021,BASO,Basophils,HEMATOLOGY,0.02,x10(9)/L,0.00,0.30,0.02,0.02,10^9/L,0,0.3,NORMAL,,,,100,UNSCHEDULED 2,2006-11-29T13:04:00,24,2006-11-29,24
ABC,LB,ABC-01-052,144,S8744270,BASOLE,Basophils/Leukocytes,HEMATOLOGY,0.87,%,0,3,0.87,0.87,%,0,3,NORMAL,,,,0,SCREENING,2006-10-31T11:12:00,-6,2006-10-31,-6
ABC,LB,ABC-01-052,145,S5250688,BASOLE,Basophils/Leukocytes,HEMATOLOGY,0.50,%,0,3,0.50,0.5,%,0,3,NORMAL,,,Y,1,DAY 1,2006-11-06T11:18:00,1,2006-11-06,1
ABC,LB,ABC-01-052,146,S4389084,BASOLE,Basophils/Leukocytes,HEMATOLOGY,1.64,%,0,3,1.64,1.64,%,0,3,NORMAL,,,,2,WEEK 2,2006-11-27T09:50:00,22,2006-11-22,17
ABC,LB,ABC-01-052,147,S8039109,BASOLE,Basophils/Leukocytes,HEMATOLOGY,0.52,%,0,3,0.52,0.52,%,0,3,NORMAL,,,,6,WEEK 6,2006-12-21T09:30:00,46,2006-12-21,46
ABC,LB,ABC-01-052,148,S6381884,BASOLE,Basophils/Leukocytes,HEMATOLOGY,0.46,%,0,3,0.46,0.46,%,0,3,NORMAL,,,,12,WEEK 12,2007-01-30T10:30:00,86,2007-01-30,86
ABC,LB,ABC-01-052,149,S3087021,BASOLE,Basophils/Leukocytes,HEMATOLOGY,0.41,%,0,3,0.41,0.41,%,0,3,NORMAL,,,,100,UNSCHEDULED 2,2006-11-29T13:04:00,24,2006-11-29,24
ABC,LB,ABC-01-052,150,S8744270,EOS,Eosinophils,HEMATOLOGY,0.13,x10(9)/L,0.05,0.50,0.13,0.13,10^9/L,0.05,0.5,NORMAL,,,,0,SCREENING,2006-10-31T11:12:00,-6,2006-10-31,-6
ABC,LB,ABC-01-052,151,S5250688,EOS,Eosinophils,HEMATOLOGY,0.12,x10(9)/L,0.05,0.50,0.12,0.12,10^9/L,0.05,0.5,NORMAL,,,Y,1,DAY 1,2006-11-06T11:18:00,1,2006-11-06,1
ABC,LB,ABC-01-052,152,S4389084,EOS,Eosinophils,HEMATOLOGY,0.07,x10(9)/L,0.05,0.50,0.07,0.07,10^9/L,0.05,0.5,NORMAL,,,,2,WEEK 2,2006-11-27T09:50:00,22,2006-11-22,17
ABC,LB,ABC-01-052,153,S8039109,EOS,Eosinophils,HEMATOLOGY,0.14,x10(9)/L,0.05,0.50,0.14,0.14,10^9/L,0.05,0.5,NORMAL,,,,6,WEEK 6,2006-12-21T09:30:00,46,2006-12-21,46
ABC,LB,ABC-01-052,154,S6381884,EOS,Eosinophils,HEMATOLOGY,0.17,x10(9)/L,0.05,0.50,0.17,0.17,10^9/L,0.05,0.5,NORMAL,,,,12,WEEK 12,2007-01-30T10:30:00,86,2007-01-30,86
ABC,LB,ABC-01-052,155,S3087021,EOS,Eosinophils,HEMATOLOGY,0.07,x10(9)/L,0.05,0.50,0.07,0.07,10^9/L,0.05,0.5,NORMAL,,,,100,UNSCHEDULED 2,2006-11-29T13:04:00,24,2006-11-29,24
ABC,LB,ABC-01-052,156,S8744270,EOSLE,Eosinophils/Leukocytes,HEMATOLOGY,1.86,%,0,7,1.86,1.86,%,0,7,NORMAL,,,,0,SCREENING,2006-10-31T11:12:00,-6,2006-10-31,-6
ABC,LB,ABC-01-052,157,S5250688,EOSLE,Eosinophils/Leukocytes,HEMATOLOGY,2.11,%,0,7,2.11,2.11,%,0,7,NORMAL,,,Y,1,DAY 1,2006-11-06T11:18:00,1,2006-11-06,1
ABC,LB,ABC-01-052,158,S4389084,EOSLE,Eosinophils/Leukocytes,HEMATOLOGY,3.35,%,0,7,3.35,3.35,%,0,7,NORMAL,,,,2,WEEK 2,2006-11-27T09:50:00,22,2006-11-22,17
ABC,LB,ABC-01-052,159,S8039109,EOSLE,Eosinophils/Leukocytes,HEMATOLOGY,2.26,%,0,7,2.26,2.26,%,0,7,NORMAL,,,,6,WEEK 6,2006-12-21T09:30:00,46,2006-12-21,46
ABC,LB,ABC-01-052,160,S6381884,EOSLE,Eosinophils/Leukocytes,HEMATOLOGY,3.74,%,0,7,3.74,3.74,%,0,7,NORMAL,,,,12,WEEK 12,2007-01-30T10:30:00,86,2007-01-30,86
ABC,LB,ABC-01-052,161,S3087021,EOSLE,Eosinophils/Leukocytes,HEMATOLOGY,1.55,%,0,7,1.55,1.55,%,0,7,NORMAL,,,,100,UNSCHEDULED 2,2006-11-29T13:04:00,24,2006-11-29,24
ABC,LB,ABC-01-052,162,S8744270,HCT,Hematocrit,HEMATOLOGY,40.2,%,34.9,44.5,40.2,40.2,%,34.9,44.5,NORMAL,,,,0,SCREENING,2006-10-31T11:12:00,-6,2006-10-31,-6
ABC,LB,ABC-01-052,163,S5250688,HCT,Hematocrit,HEMATOLOGY,38.5,%,34.9,44.5,38.5,38.5,%,34.9,44.5,NORMAL,,,Y,1,DAY 1,2006-11-06T11:18:00,1,2006-11-06,1
ABC,LB,ABC-01-052,164,S4389084,HCT,Hematocrit,HEMATOLOGY,42.3,%,34.9,44.5,42.3,42.3,%,34.9,44.5,NORMAL,,,,2,WEEK 2,2006-11-27T09:50:00,22,2006-11-22,17
ABC,LB,ABC-01-052,165,S8039109,HCT,Hematocrit,HEMATOLOGY,40.7,%,34.9,44.5,40.7,40.7,%,34.9,44.5,NORMAL,,,,6,WEEK 6,2006-12-21T09:30:00,46,2006-12-21,46
ABC,LB,ABC-01-052,166,S6381884,HCT,Hematocrit,HEMATOLOGY,40.2,%,34.9,44.5,40.2,40.2,%,34.9,44.5,NORMAL,,,,12,WEEK 12,2007-01-30T10:30:00,86,2007-01-30,86
ABC,LB,ABC-01-052,167,S3087021,HCT,Hematocrit,HEMATOLOGY,38.0,%,34.9,44.5,38.0,38,%,34.9,44.5,NORMAL,,,,100,UNSCHEDULED 2,2006-11-29T13:04:00,24,2006-11-29,24
ABC,LB,ABC-01-052,168,S8744270,HGB,Hemoglobin,HEMATOLOGY,14.0,g/dL,12.0,15.5,14.0,14,g/dL,12,15.5,NORMAL,,,,0,SCREENING,2006-10-31T11:12:00,-6,2006-10-31,-6
ABC,LB,ABC-01-052,169,S5250688,HGB,Hemoglobin,HEMATOLOGY,13.4,g/dL,12.0,15.5,13.4,13.4,g/dL,12,15.5,NORMAL,,,Y,1,DAY 1,2006-11-06T11:18:00,1,2006-11-06,1
ABC,LB,ABC-01-052,170,S4389084,HGB,Hemoglobin,HEMATOLOGY,14.9,g/dL,12.0,15.5,14.9,14.9,g/dL,12,15.5,NORMAL,,,,2,WEEK 2,2006-11-27T09:50:00,22,2006-11-22,17
ABC,LB,ABC-01-052,171,S8039109,HGB,Hemoglobin,HEMATOLOGY,14.2,g/dL,12.0,15.5,14.2,14.2,g/dL,12,15.5,NORMAL,,,,6,WEEK 6,2006-12-21T09:30:00,46,2006-12-21,46
ABC,LB,ABC-01-052,172,S6381884,HGB,Hemoglobin,HEMATOLOGY,14.0,g/dL,12.0,15.5,14.0,14,g/dL,12,15.5,NORMAL,,,,12,WEEK 12,2007-01-30T10:30:00,86,2007-01-30,86
ABC,LB,ABC-01-052,173,S3087021,HGB,Hemoglobin,HEMATOLOGY,13.5,g/dL,12.0,15.5,13.5,13.5,g/dL,12,15.5,NORMAL,,,,100,UNSCHEDULED 2,2006-11-29T13:04:00,24,2006-11-29,24
ABC,LB,ABC-01-052,174,S8744270,LYM,Lymphocytes,HEMATOLOGY,1.59,x10(9)/L,0.90,2.90,1.59,1.59,10^9/L,0.9,2.9,NORMAL,,,,0,SCREENING,2006-10-31T11:12:00,-6,2006-10-31,-6
ABC,LB,ABC-01-052,175,S5250688,LYM,Lymphocytes,HEMATOLOGY,1.82,x10(9)/L,0.90,2.90,1.82,1.82,10^9/L,0.9,2.9,NORMAL,,,Y,1,DAY 1,2006-11-06T11:18:00,1,2006-11-06,1
ABC,LB,ABC-01-052,176,S4389084,LYM,Lymphocytes,HEMATOLOGY,1.66,x10(9)/L,0.90,2.90,1.66,1.66,10^9/L,0.9,2.9,NORMAL,,,,2,WEEK 2,2006-11-27T09:50:00,22,2006-11-22,17
ABC,LB,ABC-01-052,177,S8039109,LYM,Lymphocytes,HEMATOLOGY,2.05,x10(9)/L,0.90,2.90,2.05,2.05,10^9/L,0.9,2.9,NORMAL,,,,6,WEEK 6,2006-12-21T09:30:00,46,2006-12-21,46
ABC,LB,ABC-01-052,178,S6381884,LYM,Lymphocytes,HEMATOLOGY,1.76,x10(9)/L,0.90,2.90,1.76,1.76,10^9/L,0.9,2.9,NORMAL,,,,12,WEEK 12,2007-01-30T10:30:00,86,2007-01-30,86
ABC,LB,ABC-01-052,179,S3087021,LYM,Lymphocytes,HEMATOLOGY,2.17,x10(9)/L,0.90,2.90,2.17,2.17,10^9/L,0.9,2.9,NORMAL,,,,100,UNSCHEDULED 2,2006-11-29T13:04:00,24,2006-11-29,24
ABC,LB,ABC-01-052,180,S8744270,LYMLE,Lymphocytes/Leukocytes,HEMATOLOGY,22.94,%,17,42,22.94,22.94,%,17,42,NORMAL,,,,0,SCREENING,2006-10-31T11:12:00,-6,2006-10-31,-6
ABC,LB,ABC-01-052,181,S5250688,LYMLE,Lymphocytes/Leukocytes,HEMATOLOGY,32.44,%,17,42,32.44,32.44,%,17,42,NORMAL,,,Y,1,DAY 1,2006-11-06T11:18:00,1,2006-11-06,1
ABC,LB,ABC-01-052,182,S4389084,LYMLE,Lymphocytes/Leukocytes,HEMATOLOGY,77.87,%,17,42,77.87,77.87,%,17,42,HIGH,,,,2,WEEK 2,2006-11-27T09:50:00,22,2006-11-22,17
ABC,LB,ABC-01-052,183,S8039109,LYMLE,Lymphocytes/Leukocytes,HEMATOLOGY,33.58,%,17,42,33.58,33.58,%,17,42,NORMAL,,,,6,WEEK 6,2006-12-21T09:30:00,46,2006-12-21,46
ABC,LB,ABC-01-052,184,S6381884,LYMLE,Lymphocytes/Leukocytes,HEMATOLOGY,39.01,%,17,42,39.01,39.01,%,17,42,NORMAL,,,,12,WEEK 12,2007-01-30T10:30:00,86,2007-01-30,86
ABC,LB,ABC-01-052,185,S3087021,LYMLE,Lymphocytes/Leukocytes,HEMATOLOGY,45.95,%,17,42,45.95,45.95,%,17,42,HIGH,,,,100,UNSCHEDULED 2,2006-11-29T13:04:00,24,2006-11-29,24
ABC,LB,ABC-01-052,186,S8744270,MCH,Ery. Mean Corpuscular Hemoglobin,HEMATOLOGY,29.5,pg,27.4,33.0,29.5,29.5,pg,27.4,33,NORMAL,,,,0,SCREENING,2006-10-31T11:12:00,-6,2006-10-31,-6
ABC,LB,ABC-01-052,187,S5250688,MCH,Ery. Mean Corpuscular Hemoglobin,HEMATOLOGY,29.6,pg,27.4,33.0,29.6,29.6,pg,27.4,33,NORMAL,,,Y,1,DAY 1,2006-11-06T11:18:00,1,2006-11-06,1
ABC,LB,ABC-01-052,188,S4389084,MCH,Ery. Mean Corpuscular Hemoglobin,HEMATOLOGY,29.8,pg,27.4,33.0,29.8,29.8,pg,27.4,33,NORMAL,,,,2,WEEK 2,2006-11-27T09:50:00,22,2006-11-22,17
ABC,LB,ABC-01-052,189,S8039109,MCH,Ery. Mean Corpuscular Hemoglobin,HEMATOLOGY,29.4,pg,27.4,33.0,29.4,29.4,pg,27.4,33,NORMAL,,,,6,WEEK 6,2006-12-21T09:30:00,46,2006-12-21,46
ABC,LB,ABC-01-052,190,S6381884,MCH,Ery. Mean Corpuscular Hemoglobin,HEMATOLOGY,30.0,pg,27.4,33.0,30.0,30,pg,27.4,33,NORMAL,,,,12,WEEK 12,2007-01-30T10:30:00,86,2007-01-30,86
ABC,LB,ABC-01-052,191,S3087021,MCH,Ery. Mean Corpuscular Hemoglobin,HEMATOLOGY,29.7,pg,27.4,33.0,29.7,29.7,pg,27.4,33,NORMAL,,,,100,UNSCHEDULED 2,2006-11-29T13:04:00,24,2006-11-29,24
ABC,LB,ABC-01-052,192,S8744270,MCHC,Ery. Mean Corpuscular HGB Concentration,HEMATOLOGY,34.8,g/dL,33.1,34.4,34.8,34.8,g/dL,33.1,34.4,HIGH,,,,0,SCREENING,2006-10-31T11:12:00,-6,2006-10-31,-6
ABC,LB,ABC-01-052,193,S5250688,MCHC,Ery. Mean Corpuscular HGB Concentration,HEMATOLOGY,34.9,g/dL,33.1,34.4,34.9,34.9,g/dL,33.1,34.4,HIGH,,,Y,1,DAY 1,2006-11-06T11:18:00,1,2006-11-06,1
ABC,LB,ABC-01-052,194,S4389084,MCHC,Ery. Mean Corpuscular HGB Concentration,HEMATOLOGY,35.3,g/dL,33.1,34.4,35.3,35.3,g/dL,33.1,34.4,HIGH,,,,2,WEEK 2,2006-11-27T09:50:00,22,2006-11-22,17
ABC,LB,ABC-01-052,195,S8039109,MCHC,Ery. Mean Corpuscular HGB Concentration,HEMATOLOGY,34.9,g/dL,33.1,34.4,34.9,34.9,g/dL,33.1,34.4,HIGH,,,,6,WEEK 6,2006-12-21T09:30:00,46,2006-12-21,46
ABC,LB,ABC-01-052,196,S6381884,MCHC,Ery. Mean Corpuscular HGB Concentration,HEMATOLOGY,34.8,g/dL,33.1,34.4,34.8,34.8,g/dL,33.1,34.4,HIGH,,,,12,WEEK 12,2007-01-30T10:30:00,86,2007-01-30,86
ABC,LB,ABC-01-052,197,S3087021,MCHC,Ery. Mean Corpuscular HGB Concentration,HEMATOLOGY,35.5,g/dL,33.1,34.4,35.5,35.5,g/dL,33.1,34.4,HIGH,,,,100,UNSCHEDULED 2,2006-11-29T13:04:00,24,2006-11-29,24
ABC,LB,ABC-01-052,198,S8744270,MCV,Ery. Mean Corpuscular Volume,HEMATOLOGY,84.7,fL,81.6,98.3,84.7,84.7,fL,81.6,98.3,NORMAL,,,,0,SCREENING,2006-10-31T11:12:00,-6,2006-10-31,-6
ABC,LB,ABC-01-052,199,S5250688,MCV,Ery. Mean Corpuscular Volume,HEMATOLOGY,84.8,fL,81.6,98.3,84.8,84.8,fL,81.6,98.3,NORMAL,,,Y,1,DAY 1,2006-11-06T11:18:00,1,2006-11-06,1
ABC,LB,ABC-01-052,200,S4389084,MCV,Ery. Mean Corpuscular Volume,HEMATOLOGY,84.3,fL,81.6,98.3,84.3,84.3,fL,81.6,98.3,NORMAL,,,,2,WEEK 2,2006-11-27T09:50:00,22,2006-11-22,17
ABC,LB,ABC-01-052,201,S8039109,MCV,Ery. Mean Corpuscular Volume,HEMATOLOGY,84.3,fL,81.6,98.3,84.3,84.3,fL,81.6,98.3,NORMAL,,,,6,WEEK 6,2006-12-21T09:30:00,46,2006-12-21,46
ABC,LB,ABC-01-052,202,S6381884,MCV,Ery. Mean Corpuscular Volume,HEMATOLOGY,86.1,fL,81.6,98.3,86.1,86.1,fL,81.6,98.3,NORMAL,,,,12,WEEK 12,2007-01-30T10:30:00,86,2007-01-30,86
ABC,LB,ABC-01-052,203,S3087021,MCV,Ery. Mean Corpuscular Volume,HEMATOLOGY,83.6,fL,81.6,98.3,83.6,83.6,fL,81.6,98.3,NORMAL,,,,100,UNSCHEDULED 2,2006-11-29T13:04:00,24,2006-11-29,24
ABC,LB,ABC-01-052,204,S8744270,MONO,Monocytes,HEMATOLOGY,0.40,x10(9)/L,0.30,0.90,0.40,0.4,10^9/L,0.3,0.9,NORMAL,,,,0,SCREENING,2006-10-31T11:12:00,-6,2006-10-31,-6
ABC,LB,ABC-01-052,205,S5250688,MONO,Monocytes,HEMATOLOGY,0.46,x10(9)/L,0.30,0.90,0.46,0.46,10^9/L,0.3,0.9,NORMAL,,,Y,1,DAY 1,2006-11-06T11:18:00,1,2006-11-06,1
ABC,LB,ABC-01-052,206,S4389084,MONO,Monocytes,HEMATOLOGY,0.32,x10(9)/L,0.30,0.90,0.32,0.32,10^9/L,0.3,0.9,NORMAL,,,,2,WEEK 2,2006-11-27T09:50:00,22,2006-11-22,17
ABC,LB,ABC-01-052,207,S8039109,MONO,Monocytes,HEMATOLOGY,0.50,x10(9)/L,0.30,0.90,0.50,0.5,10^9/L,0.3,0.9,NORMAL,,,,6,WEEK 6,2006-12-21T09:30:00,46,2006-12-21,46
ABC,LB,ABC-01-052,208,S6381884,MONO,Monocytes,HEMATOLOGY,0.42,x10(9)/L,0.30,0.90,0.42,0.42,10^9/L,0.3,0.9,NORMAL,,,,12,WEEK 12,2007-01-30T10:30:00,86,2007-01-30,86
ABC,LB,ABC-01-052,209,S3087021,MONO,Monocytes,HEMATOLOGY,0.46,x10(9)/L,0.30,0.90,0.46,0.46,10^9/L,0.3,0.9,NORMAL,,,,100,UNSCHEDULED 2,2006-11-29T13:04:00,24,2006-11-29,24
ABC,LB,ABC-01-052,210,S8744270,MONOLE,Monocytes/Leukocytes,HEMATOLOGY,5.73,%,4,15,5.73,5.73,%,4,15,NORMAL,,,,0,SCREENING,2006-10-31T11:12:00,-6,2006-10-31,-6
ABC,LB,ABC-01-052,211,S5250688,MONOLE,Monocytes/Leukocytes,HEMATOLOGY,8.17,%,4,15,8.17,8.17,%,4,15,NORMAL,,,Y,1,DAY 1,2006-11-06T11:18:00,1,2006-11-06,1
ABC,LB,ABC-01-052,212,S4389084,MONOLE,Monocytes/Leukocytes,HEMATOLOGY,14.79,%,4,15,14.79,14.79,%,4,15,NORMAL,,,,2,WEEK 2,2006-11-27T09:50:00,22,2006-11-22,17
ABC,LB,ABC-01-052,213,S8039109,MONOLE,Monocytes/Leukocytes,HEMATOLOGY,8.20,%,4,15,8.20,8.2,%,4,15,NORMAL,,,,6,WEEK 6,2006-12-21T09:30:00,46,2006-12-21,46
ABC,LB,ABC-01-052,214,S6381884,MONOLE,Monocytes/Leukocytes,HEMATOLOGY,9.25,%,4,15,9.25,9.25,%,4,15,NORMAL,,,,12,WEEK 12,2007-01-30T10:30:00,86,2007-01-30,86
ABC,LB,ABC-01-052,215,S3087021,MONOLE,Monocytes/Leukocytes,HEMATOLOGY,9.74,%,4,15,9.74,9.74,%,4,15,NORMAL,,,,100,UNSCHEDULED 2,2006-11-29T13:04:00,24,2006-11-29,24
ABC,LB,ABC-01-052,216,S8744270,NEUT,Neutrophils,HEMATOLOGY,4.77,x10(9)/L,1.70,7.00,4.77,4.77,10^9/L,1.7,7,NORMAL,,,,0,SCREENING,2006-10-31T11:12:00,-6,2006-10-31,-6
ABC,LB,ABC-01-052,217,S5250688,NEUT,Neutrophils,HEMATOLOGY,3.19,x10(9)/L,1.70,7.00,3.19,3.19,10^9/L,1.7,7,NORMAL,,,Y,1,DAY 1,2006-11-06T11:18:00,1,2006-11-06,1
ABC,LB,ABC-01-052,218,S8039109,NEUT,Neutrophils,HEMATOLOGY,3.38,x10(9)/L,1.70,7.00,3.38,3.38,10^9/L,1.7,7,NORMAL,,,,6,WEEK 6,2006-12-21T09:30:00,46,2006-12-21,46
ABC,LB,ABC-01-052,219,S6381884,NEUT,Neutrophils,HEMATOLOGY,2.15,x10(9)/L,1.70,7.00,2.15,2.15,10^9/L,1.7,7,NORMAL,,,,12,WEEK 12,2007-01-30T10:30:00,86,2007-01-30,86
ABC,LB,ABC-01-052,220,S4389084,NEUT,Neutrophils,HEMATOLOGY,0.05,x10(9)/L,1.70,7.00,0.05,0.05,10^9/L,1.7,7,CLINICALLY LOW,,,,99,UNSCHEDULED 1,2006-11-27T09:50:00,22,2006-11-27,22
ABC,LB,ABC-01-052,221,S3087021,NEUT,Neutrophils,HEMATOLOGY,2.00,x10(9)/L,1.70,7.00,2.00,2,10^9/L,1.7,7,NORMAL,,,,100,UNSCHEDULED 2,2006-11-29T13:04:00,24,2006-11-29,24
ABC,LB,ABC-01-052,222,S8744270,NEUTLE,Neutrophils/Leukocytes,HEMATOLOGY,68.60,%,44,71,68.60,68.6,%,44,71,NORMAL,,,,0,SCREENING,2006-10-31T11:12:00,-6,2006-10-31,-6
ABC,LB,ABC-01-052,223,S5250688,NEUTLE,Neutrophils/Leukocytes,HEMATOLOGY,56.78,%,44,71,56.78,56.78,%,44,71,NORMAL,,,Y,1,DAY 1,2006-11-06T11:18:00,1,2006-11-06,1
ABC,LB,ABC-01-052,224,S4389084,NEUTLE,Neutrophils/Leukocytes,HEMATOLOGY,2.35,%,44,71,2.35,2.35,%,44,71,LOW,,,,2,WEEK 2,2006-11-27T09:50:00,22,2006-11-22,17
ABC,LB,ABC-01-052,225,S8039109,NEUTLE,Neutrophils/Leukocytes,HEMATOLOGY,55.44,%,44,71,55.44,55.44,%,44,71,NORMAL,,,,6,WEEK 6,2006-12-21T09:30:00,46,2006-12-21,46
ABC,LB,ABC-01-052,226,S6381884,NEUTLE,Neutrophils/Leukocytes,HEMATOLOGY,47.54,%,44,71,47.54,47.54,%,44,71,NORMAL,,,,12,WEEK 12,2007-01-30T10:30:00,86,2007-01-30,86
ABC,LB,ABC-01-052,227,S3087021,NEUTLE,Neutrophils/Leukocytes,HEMATOLOGY,42.35,%,44,71,42.35,42.35,%,44,71,LOW,,,,100,UNSCHEDULED 2,2006-11-29T13:04:00,24,2006-11-29,24
ABC,LB,ABC-01-052,228,S8744270,PLAT,Platelets,HEMATOLOGY,174,x10(9)/L,150,450,174,174,10^9/L,150,450,NORMAL,,,,0,SCREENING,2006-10-31T11:12:00,-6,2006-10-31,-6
ABC,LB,ABC-01-052,229,S5250688,PLAT,Platelets,HEMATOLOGY,183,x10(9)/L,150,450,183,183,10^9/L,150,450,NORMAL,,,Y,1,DAY 1,2006-11-06T11:18:00,1,2006-11-06,1
ABC,LB,ABC-01-052,230,S4389084,PLAT,Platelets,HEMATOLOGY,159,x10(9)/L,150,450,159,159,10^9/L,150,450,NORMAL,,,,2,WEEK 2,2006-11-27T09:50:00,22,2006-11-22,17
ABC,LB,ABC-01-052,231,S8039109,PLAT,Platelets,HEMATOLOGY,204,x10(9)/L,150,450,204,204,10^9/L,150,450,NORMAL,,,,6,WEEK 6,2006-12-21T09:30:00,46,2006-12-21,46
ABC,LB,ABC-01-052,232,S6381884,PLAT,Platelets,HEMATOLOGY,181,x10(9)/L,150,450,181,181,10^9/L,150,450,NORMAL,,,,12,WEEK 12,2007-01-30T10:30:00,86,2007-01-30,86
ABC,LB,ABC-01-052,233,S3087021,PLAT,Platelets,HEMATOLOGY,160,x10(9)/L,150,450,160,160,10^9/L,150,450,NORMAL,,,,100,UNSCHEDULED 2,2006-11-29T13:04:00,24,2006-11-29,24
ABC,LB,ABC-01-052,234,S8744270,RBC,Erythrocytes,HEMATOLOGY,4.75,x10(12)/L,3.90,5.03,4.75,4.75,10^12/L,3.9,5.03,NORMAL,,,,0,SCREENING,2006-10-31T11:12:00,-6,2006-10-31,-6
ABC,LB,ABC-01-052,235,S5250688,RBC,Erythrocytes,HEMATOLOGY,4.54,x10(12)/L,3.90,5.03,4.54,4.54,10^12/L,3.9,5.03,NORMAL,,,Y,1,DAY 1,2006-11-06T11:18:00,1,2006-11-06,1
ABC,LB,ABC-01-052,236,S4389084,RBC,Erythrocytes,HEMATOLOGY,5.02,x10(12)/L,3.90,5.03,5.02,5.02,10^12/L,3.9,5.03,NORMAL,,,,2,WEEK 2,2006-11-27T09:50:00,22,2006-11-22,17
ABC,LB,ABC-01-052,237,S8039109,RBC,Erythrocytes,HEMATOLOGY,4.83,x10(12)/L,3.90,5.03,4.83,4.83,10^12/L,3.9,5.03,NORMAL,,,,6,WEEK 6,2006-12-21T09:30:00,46,2006-12-21,46
ABC,LB,ABC-01-052,238,S6381884,RBC,Erythrocytes,HEMATOLOGY,4.67,x10(12)/L,3.90,5.03,4.67,4.67,10^12/L,3.9,5.03,NORMAL,,,,12,WEEK 12,2007-01-30T10:30:00,86,2007-01-30,86
ABC,LB,ABC-01-052,239,S3087021,RBC,Erythrocytes,HEMATOLOGY,4.54,x10(12)/L,3.90,5.03,4.54,4.54,10^12/L,3.9,5.03,NORMAL,,,,100,UNSCHEDULED 2,2006-11-29T13:04:00,24,2006-11-29,24
ABC,LB,ABC-01-052,240,S8744270,RDW,Erythrocytes Distribution Width,HEMATOLOGY,12.6,%,11.9,15.5,12.6,12.6,%,11.9,15.5,NORMAL,,,,0,SCREENING,2006-10-31T11:12:00,-6,2006-10-31,-6
ABC,LB,ABC-01-052,241,S5250688,RDW,Erythrocytes Distribution Width,HEMATOLOGY,12.5,%,11.9,15.5,12.5,12.5,%,11.9,15.5,NORMAL,,,Y,1,DAY 1,2006-11-06T11:18:00,1,2006-11-06,1
ABC,LB,ABC-01-052,242,S4389084,RDW,Erythrocytes Distribution Width,HEMATOLOGY,12.7,%,11.9,15.5,12.7,12.7,%,11.9,15.5,NORMAL,,,,2,WEEK 2,2006-11-27T09:50:00,22,2006-11-22,17
ABC,LB,ABC-01-052,243,S8039109,RDW,Erythrocytes Distribution Width,HEMATOLOGY,12.3,%,11.9,15.5,12.3,12.3,%,11.9,15.5,NORMAL,,,,6,WEEK 6,2006-12-21T09:30:00,46,2006-12-21,46
ABC,LB,ABC-01-052,244,S6381884,RDW,Erythrocytes Distribution Width,HEMATOLOGY,12.6,%,11.9,15.5,12.6,12.6,%,11.9,15.5,NORMAL,,,,12,WEEK 12,2007-01-30T10:30:00,86,2007-01-30,86
ABC,LB,ABC-01-052,245,S3087021,RDW,Erythrocytes Distribution Width,HEMATOLOGY,12.3,%,11.9,15.5,12.3,12.3,%,11.9,15.5,NORMAL,,,,100,UNSCHEDULED 2,2006-11-29T13:04:00,24,2006-11-29,24
ABC,LB,ABC-01-052,246,S8744270,WBC,Leukocytes,HEMATOLOGY,6.9,x10(9)/L,3.5,10.5,6.9,6.9,10^9/L,3.5,10.5,NORMAL,,,,0,SCREENING,2006-10-31T11:12:00,-6,2006-10-31,-6
ABC,LB,ABC-01-052,247,S5250688,WBC,Leukocytes,HEMATOLOGY,5.6,x10(9)/L,3.5,10.5,5.6,5.6,10^9/L,3.5,10.5,NORMAL,,,Y,1,DAY 1,2006-11-06T11:18:00,1,2006-11-06,1
ABC,LB,ABC-01-052,248,S4389084,WBC,Leukocytes,HEMATOLOGY,2.1,x10(9)/L,3.5,10.5,2.1,2.1,10^9/L,3.5,10.5,LOW,,,,2,WEEK 2,2006-11-27T09:50:00,22,2006-11-22,17
ABC,LB,ABC-01-052,249,S8039109,WBC,Leukocytes,HEMATOLOGY,6.1,x10(9)/L,3.5,10.5,6.1,6.1,10^9/L,3.5,10.5,NORMAL,,,,6,WEEK 6,2006-12-21T09:30:00,46,2006-12-21,46
ABC,LB,ABC-01-052,250,S6381884,WBC,Leukocytes,HEMATOLOGY,4.5,x10(9)/L,3.5,10.5,4.5,4.5,10^9/L,3.5,10.5,NORMAL,,,,12,WEEK 12,2007-01-30T10:30:00,86,2007-01-30,86
ABC,LB,ABC-01-052,251,S3087021,WBC,Leukocytes,HEMATOLOGY,4.7,x10(9)/L,3.5,10.5,4.7,4.7,10^9/L,3.5,10.5,NORMAL,,,,100,UNSCHEDULED 2,2006-11-29T13:04:00,24,2006-11-29,24
ABC,LB,ABC-01-052,252,S7942605,BILI,Bilirubin,URINALYSIS,NEGATIVE,,,,NEGATIVE,,,,,,,,,0,SCREENING,2006-10-31T11:00:00,-6,2006-10-31,-6
ABC,LB,ABC-01-052,253,S0806760,BILI,Bilirubin,URINALYSIS,NEGATIVE,,,,NEGATIVE,,,,,,,,Y,1,DAY 1,2006-11-06T11:15:00,1,2006-11-06,1
ABC,LB,ABC-01-052,254,S7840045,BILI,Bilirubin,URINALYSIS,NEGATIVE,,,,NEGATIVE,,,,,,,,,2,WEEK 2,2006-11-27T10:08:00,22,2006-11-22,17
ABC,LB,ABC-01-052,255,S6105299,BILI,Bilirubin,URINALYSIS,NEGATIVE,,,,NEGATIVE,,,,,,,,,6,WEEK 6,2006-12-21T09:40:00,46,2006-12-21,46
ABC,LB,ABC-01-052,256,S9947748,CACONC,Calcium Concentration,URINALYSIS,59.09674751,mg/L,,,59.096748,59.096748,mg/L,,,,,,,0,SCREENING,2006-10-31T11:00:00,-6,2006-10-31,-6
ABC,LB,ABC-01-052,257,S7612622,CACONC,Calcium Concentration,URINALYSIS,55,mg/L,,,55.000000,55,mg/L,,,,,,Y,1,DAY 1,2006-11-06T11:15:00,1,2006-11-06,1
ABC,LB,ABC-01-052,258,S5976132,CACONC,Calcium Concentration,URINALYSIS,69,mg/L,,,69.000000,69,mg/L,,,,,,,2,WEEK 2,2006-11-27T10:08:00,22,2006-11-22,17
ABC,LB,ABC-01-052,259,S5465357,CACONC,Calcium Concentration,URINALYSIS,55,mg/L,,,55.000000,55,mg/L,,,,,,,6,WEEK 6,2006-12-21T09:40:00,46,2006-12-21,46
ABC,LB,ABC-01-052,260,S9947748,CACREAT,Calcium/Creatinine,URINALYSIS,0.10,,,,0.10,0.1,,,,,,,,0,SCREENING,2006-10-31T11:00:00,-6,2006-10-31,-6
ABC,LB,ABC-01-052,261,S7612622,CACREAT,Calcium/Creatinine,URINALYSIS,0.17,,,,0.17,0.17,,,,,,,Y,1,DAY 1,2006-11-06T11:15:00,1,2006-11-06,1
ABC,LB,ABC-01-052,262,S5976132,CACREAT,Calcium/Creatinine,URINALYSIS,0.09,,,,0.09,0.09,,,,,,,,2,WEEK 2,2006-11-27T10:08:00,22,2006-11-22,17
ABC,LB,ABC-01-052,263,S5465357,CACREAT,Calcium/Creatinine,URINALYSIS,0.13,,,,0.13,0.13,,,,,,,,6,WEEK 6,2006-12-21T09:40:00,46,2006-12-21,46
ABC,LB,ABC-01-052,264,S9947748,CREACONC,Creatinine Concentration,URINALYSIS,62,mg/dL,,,62,62,mg/dL,,,,,,,0,SCREENING,2006-10-31T11:00:00,-6,2006-10-31,-6
ABC,LB,ABC-01-052,265,S7612622,CREACONC,Creatinine Concentration,URINALYSIS,33,mg/dL,,,33,33,mg/dL,,,,,,Y,1,DAY 1,2006-11-06T11:15:00,1,2006-11-06,1
ABC,LB,ABC-01-052,266,S5976132,CREACONC,Creatinine Concentration,URINALYSIS,76,mg/dL,,,76,76,mg/dL,,,,,,,2,WEEK 2,2006-11-27T10:08:00,22,2006-11-22,17
ABC,LB,ABC-01-052,267,S5465357,CREACONC,Creatinine Concentration,URINALYSIS,41,mg/dL,,,41,41,mg/dL,,,,,,,6,WEEK 6,2006-12-21T09:40:00,46,2006-12-21,46
ABC,LB,ABC-01-052,268,S7942605,GLUC,Glucose,URINALYSIS,NEGATIVE,g/dL,,,NEGATIVE,,g/dL,,,,,,,0,SCREENING,2006-10-31T11:00:00,-6,2006-10-31,-6
ABC,LB,ABC-01-052,269,S0806760,GLUC,Glucose,URINALYSIS,NEGATIVE,g/dL,,,NEGATIVE,,g/dL,,,,,,Y,1,DAY 1,2006-11-06T11:15:00,1,2006-11-06,1
ABC,LB,ABC-01-052,270,S7840045,GLUC,Glucose,URINALYSIS,NEGATIVE,g/dL,,,NEGATIVE,,g/dL,,,,,,,2,WEEK 2,2006-11-27T10:08:00,22,2006-11-22,17
ABC,LB,ABC-01-052,271,S6105299,GLUC,Glucose,URINALYSIS,NEGATIVE,g/dL,,,NEGATIVE,,g/dL,,,,,,,6,WEEK 6,2006-12-21T09:40:00,46,2006-12-21,46
ABC,LB,ABC-01-052,272,,HCG,Choriogonadotropin Beta,URINALYSIS,,,,,,,,,,,NOT DONE,Subject is male or female who is post-menopausal or has undergone successful surgical sterilization,,4,WEEK 4,,,2006-12-04,29
ABC,LB,ABC-01-052,273,,HCG,Choriogonadotropin Beta,URINALYSIS,,,,,,,,,,,NOT DONE,Subject is male or female who is post-menopausal or has undergone successful surgical sterilization,,8,WEEK 8,,,2007-01-03,59
ABC,LB,ABC-01-052,274,,HCG,Choriogonadotropin Beta,URINALYSIS,,,,,,,,,,,NOT DONE,Subject is male or female who is post-menopausal or has undergone successful surgical sterilization,,12,WEEK 12,,,2007-01-30,86
ABC,LB,ABC-01-052,275,S7942605,HGB,Hemoglobin,URINALYSIS,NEGATIVE,,,,NEGATIVE,,,,,,,,,0,SCREENING,2006-10-31T11:00:00,-6,2006-10-31,-6
ABC,LB,ABC-01-052,276,S0806760,HGB,Hemoglobin,URINALYSIS,NEGATIVE,,,,NEGATIVE,,,,,,,,Y,1,DAY 1,2006-11-06T11:15:00,1,2006-11-06,1
ABC,LB,ABC-01-052,277,S7840045,HGB,Hemoglobin,URINALYSIS,NEGATIVE,,,,NEGATIVE,,,,,,,,,2,WEEK 2,2006-11-27T10:08:00,22,2006-11-22,17
ABC,LB,ABC-01-052,278,S6105299,HGB,Hemoglobin,URINALYSIS,NEGATIVE,,,,NEGATIVE,,,,,,,,,6,WEEK 6,2006-12-21T09:40:00,46,2006-12-21,46
ABC,LB,ABC-01-052,279,S7942605,KETONES,Ketones,URINALYSIS,NEGATIVE,,,,NEGATIVE,,,,,,,,,0,SCREENING,2006-10-31T11:00:00,-6,2006-10-31,-6
ABC,LB,ABC-01-052,280,S0806760,KETONES,Ketones,URINALYSIS,NEGATIVE,,,,NEGATIVE,,,,,,,,Y,1,DAY 1,2006-11-06T11:15:00,1,2006-11-06,1
ABC,LB,ABC-01-052,281,S7840045,KETONES,Ketones,URINALYSIS,NEGATIVE,,,,NEGATIVE,,,,,,,,,2,WEEK 2,2006-11-27T10:08:00,22,2006-11-22,17
ABC,LB,ABC-01-052,282,S6105299,KETONES,Ketones,URINALYSIS,NEGATIVE,,,,NEGATIVE,,,,,,,,,6,WEEK 6,2006-12-21T09:40:00,46,2006-12-21,46
ABC,LB,ABC-01-052,283,S7942605,MICRO,Microscopy,URINALYSIS,NORMAL,,,,NORMAL,,,,,,,,,0,SCREENING,2006-10-31T11:00:00,-6,2006-10-31,-6
ABC,LB,ABC-01-052,284,S0806760,MICRO,Microscopy,URINALYSIS,NORMAL,,,,NORMAL,,,,,,,,Y,1,DAY 1,2006-11-06T11:15:00,1,2006-11-06,1
ABC,LB,ABC-01-052,285,S7840045,MICRO,Microscopy,URINALYSIS,NORMAL,,,,NORMAL,,,,,,,,,2,WEEK 2,2006-11-27T10:08:00,22,2006-11-22,17
ABC,LB,ABC-01-052,286,S6105299,MICRO,Microscopy,URINALYSIS,NORMAL,,,,NORMAL,,,,,,,,,6,WEEK 6,2006-12-21T09:40:00,46,2006-12-21,46
ABC,LB,ABC-01-052,287,S7942605,NITRITE,Nitrite,URINALYSIS,NEGATIVE,,,,NEGATIVE,,,,,,,,,0,SCREENING,2006-10-31T11:00:00,-6,2006-10-31,-6
ABC,LB,ABC-01-052,288,S0806760,NITRITE,Nitrite,URINALYSIS,NEGATIVE,,,,NEGATIVE,,,,,,,,Y,1,DAY 1,2006-11-06T11:15:00,1,2006-11-06,1
ABC,LB,ABC-01-052,289,S7840045,NITRITE,Nitrite,URINALYSIS,NEGATIVE,,,,NEGATIVE,,,,,,,,,2,WEEK 2,2006-11-27T10:08:00,22,2006-11-22,17
ABC,LB,ABC-01-052,290,S6105299,NITRITE,Nitrite,URINALYSIS,NEGATIVE,,,,NEGATIVE,,,,,,,,,6,WEEK 6,2006-12-21T09:40:00,46,2006-12-21,46
ABC,LB,ABC-01-052,291,S7942605,PH,pH,URINALYSIS,8.0,,,,8.0,8,,,,,,,,0,SCREENING,2006-10-31T11:00:00,-6,2006-10-31,-6
ABC,LB,ABC-01-052,292,S0806760,PH,pH,URINALYSIS,8.0,,,,8.0,8,,,,,,,Y,1,DAY 1,2006-11-06T11:15:00,1,2006-11-06,1
ABC,LB,ABC-01-052,293,S7840045,PH,pH,URINALYSIS,8.0,,,,8.0,8,,,,,,,,2,WEEK 2,2006-11-27T10:08:00,22,2006-11-22,17
ABC,LB,ABC-01-052,294,S6105299,PH,pH,URINALYSIS,7.0,,,,7.0,7,,,,,,,,6,WEEK 6,2006-12-21T09:40:00,46,2006-12-21,46
ABC,LB,ABC-01-052,295,S6353225,PHOSCONC,Phosphate Concentration,URINALYSIS,53,mg/dL,,,53.0,53,mg/dL,,,,,,,0,SCREENING,2006-10-31T11:00:00,-6,2006-10-31,-6
ABC,LB,ABC-01-052,296,S2682260,PHOSCONC,Phosphate Concentration,URINALYSIS,16,mg/dL,,,16.0,16,mg/dL,,,,,,Y,1,DAY 1,2006-11-06T11:15:00,1,2006-11-06,1
ABC,LB,ABC-01-052,297,S0225582,PHOSCONC,Phosphate Concentration,URINALYSIS,24,mg/dL,,,24.0,24,mg/dL,,,,,,,2,WEEK 2,2006-11-27T10:08:00,22,2006-11-22,17
ABC,LB,ABC-01-052,298,S3603759,PHOSCONC,Phosphate Concentration,URINALYSIS,18,mg/dL,,,18.0,18,mg/dL,,,,,,,6,WEEK 6,2006-12-21T09:40:00,46,2006-12-21,46
ABC,LB,ABC-01-052,299,S7942605,PROT,Protein,URINALYSIS,NEGATIVE,,,,NEGATIVE,,,,,,,,,0,SCREENING,2006-10-31T11:00:00,-6,2006-10-31,-6
ABC,LB,ABC-01-052,300,S0806760,PROT,Protein,URINALYSIS,NEGATIVE,,,,NEGATIVE,,,,,,,,Y,1,DAY 1,2006-11-06T11:15:00,1,2006-11-06,1
ABC,LB,ABC-01-052,301,S7840045,PROT,Protein,URINALYSIS,NEGATIVE,,,,NEGATIVE,,,,,,,,,2,WEEK 2,2006-11-27T10:08:00,22,2006-11-22,17
ABC,LB,ABC-01-052,302,S6105299,PROT,Protein,URINALYSIS,NEGATIVE,,,,NEGATIVE,,,,,,,,,6,WEEK 6,2006-12-21T09:40:00,46,2006-12-21,46
ABC,LB,ABC-01-052,303,S7942605,SPGRAV,Specific Gravity,URINALYSIS,1.010,,,,1.010,1.01,,,,,,,,0,SCREENING,2006-10-31T11:00:00,-6,2006-10-31,-6
ABC,LB,ABC-01-052,304,S0806760,SPGRAV,Specific Gravity,URINALYSIS,1.010,,,,1.010,1.01,,,,,,,Y,1,DAY 1,2006-11-06T11:15:00,1,2006-11-06,1
ABC,LB,ABC-01-052,305,S7840045,SPGRAV,Specific Gravity,URINALYSIS,1.010,,,,1.010,1.01,,,,,,,,2,WEEK 2,2006-11-27T10:08:00,22,2006-11-22,17
ABC,LB,ABC-01-052,306,S6105299,SPGRAV,Specific Gravity,URINALYSIS,1.010,,,,1.010,1.01,,,,,,,,6,WEEK 6,2006-12-21T09:40:00,46,2006-12-21,46
ABC,LB,ABC-01-052,307,S7942605,UROBIL,Urobilinogen,URINALYSIS,NORMAL,,,,NORMAL,,,,,,,,,0,SCREENING,2006-10-31T11:00:00,-6,2006-10-31,-6
ABC,LB,ABC-01-052,308,S0806760,UROBIL,Urobilinogen,URINALYSIS,NORMAL,,,,NORMAL,,,,,,,,Y,1,DAY 1,2006-11-06T11:15:00,1,2006-11-06,1
ABC,LB,ABC-01-052,309,S7840045,UROBIL,Urobilinogen,URINALYSIS,NORMAL,,,,NORMAL,,,,,,,,,2,WEEK 2,2006-11-27T10:08:00,22,2006-11-22,17
ABC,LB,ABC-01-052,310,S6105299,UROBIL,Urobilinogen,URINALYSIS,NORMAL,,,,NORMAL,,,,,,,,,6,WEEK 6,2006-12-21T09:40:00,46,2006-12-21,46
ABC,LB,ABC-01-052,311,S7840045,WBC,Leukocytes,URINALYSIS,1-3,/hpf,1,3,1-3,,/HPF,1,3,,,,,2,WEEK 2,2006-11-27T10:08:00,22,2006-11-22,17
ABC,LB,ABC-01-053,1,S6111233,ALB,Albumin,CHEMISTRY,4.3,g/dL,3.5,5.0,4.3,4.3,g/dL,3.5,5,NORMAL,,,,0,SCREENING,2006-11-06T09:08:00,-2,2006-11-01,-7
ABC,LB,ABC-01-053,2,S6784084,ALB,Albumin,CHEMISTRY,4.2,g/dL,3.5,5.0,4.2,4.2,g/dL,3.5,5,NORMAL,,,Y,1,DAY 1,2006-11-08T12:09:00,1,2006-11-08,1
ABC,LB,ABC-01-053,3,S8453216,ALB,Albumin,CHEMISTRY,4.3,g/dL,3.5,5.0,4.3,4.3,g/dL,3.5,5,NORMAL,,,,2,WEEK 2,2006-11-27T11:09:00,20,2006-11-22,15
ABC,LB,ABC-01-053,4,S6111233,ALP,Alkaline Phosphatase,CHEMISTRY,41,U/L,37,98,41,41,U/L,37,98,NORMAL,,,,0,SCREENING,2006-11-06T09:08:00,-2,2006-11-01,-7
ABC,LB,ABC-01-053,5,S6784084,ALP,Alkaline Phosphatase,CHEMISTRY,38,U/L,37,98,38,38,U/L,37,98,NORMAL,,,Y,1,DAY 1,2006-11-08T12:09:00,1,2006-11-08,1
ABC,LB,ABC-01-053,6,S8453216,ALP,Alkaline Phosphatase,CHEMISTRY,44,U/L,37,98,44,44,U/L,37,98,NORMAL,,,,2,WEEK 2,2006-11-27T11:09:00,20,2006-11-22,15
ABC,LB,ABC-01-053,7,S6111233,ALT,Alanine Aminotransferase,CHEMISTRY,17,U/L,9,29,17,17,U/L,9,29,NORMAL,,,,0,SCREENING,2006-11-06T09:08:00,-2,2006-11-01,-7
ABC,LB,ABC-01-053,8,S6784084,ALT,Alanine Aminotransferase,CHEMISTRY,16,U/L,9,29,16,16,U/L,9,29,NORMAL,,,Y,1,DAY 1,2006-11-08T12:09:00,1,2006-11-08,1
ABC,LB,ABC-01-053,9,S8453216,ALT,Alanine Aminotransferase,CHEMISTRY,16,U/L,9,29,16,16,U/L,9,29,NORMAL,,,,2,WEEK 2,2006-11-27T11:09:00,20,2006-11-22,15
ABC,LB,ABC-01-053,10,S6111233,AST,Aspartate Aminotransferase,CHEMISTRY,20,U/L,12,31,20,20,U/L,12,31,NORMAL,,,,0,SCREENING,2006-11-06T09:08:00,-2,2006-11-01,-7
ABC,LB,ABC-01-053,11,S6784084,AST,Aspartate Aminotransferase,CHEMISTRY,22,U/L,12,31,22,22,U/L,12,31,NORMAL,,,Y,1,DAY 1,2006-11-08T12:09:00,1,2006-11-08,1
ABC,LB,ABC-01-053,12,S8453216,AST,Aspartate Aminotransferase,CHEMISTRY,20,U/L,12,31,20,20,U/L,12,31,NORMAL,,,,2,WEEK 2,2006-11-27T11:09:00,20,2006-11-22,15
ABC,LB,ABC-01-053,13,S6111233,BILI,Bilirubin,CHEMISTRY,0.4,mg/dL,0.1,1.0,0.4,0.4,mg/dL,0.1,1,NORMAL,,,,0,SCREENING,2006-11-06T09:08:00,-2,2006-11-01,-7
ABC,LB,ABC-01-053,14,S6784084,BILI,Bilirubin,CHEMISTRY,0.4,mg/dL,0.1,1.0,0.4,0.4,mg/dL,0.1,1,NORMAL,,,Y,1,DAY 1,2006-11-08T12:09:00,1,2006-11-08,1
ABC,LB,ABC-01-053,15,S8453216,BILI,Bilirubin,CHEMISTRY,0.5,mg/dL,0.1,1.0,0.5,0.5,mg/dL,0.1,1,NORMAL,,,,2,WEEK 2,2006-11-27T11:09:00,20,2006-11-22,15
ABC,LB,ABC-01-053,16,S6111233,BUN,Blood Urea Nitrogen,CHEMISTRY,12,mg/dL,6,21,12,12,mg/dL,6,21,NORMAL,,,,0,SCREENING,2006-11-06T09:08:00,-2,2006-11-01,-7
ABC,LB,ABC-01-053,17,S6784084,BUN,Blood Urea Nitrogen,CHEMISTRY,11,mg/dL,6,21,11,11,mg/dL,6,21,NORMAL,,,Y,1,DAY 1,2006-11-08T12:09:00,1,2006-11-08,1
ABC,LB,ABC-01-053,18,S8453216,BUN,Blood Urea Nitrogen,CHEMISTRY,13,mg/dL,6,21,13,13,mg/dL,6,21,NORMAL,,,,2,WEEK 2,2006-11-27T11:09:00,20,2006-11-22,15
ABC,LB,ABC-01-053,19,S6111233,CA,Calcium,CHEMISTRY,10.0,mg/dL,8.9,10.1,10.0,10,mg/dL,8.9,10.1,NORMAL,,,,0,SCREENING,2006-11-06T09:08:00,-2,2006-11-01,-7
ABC,LB,ABC-01-053,20,S6784084,CA,Calcium,CHEMISTRY,9.9,mg/dL,8.9,10.1,9.9,9.9,mg/dL,8.9,10.1,NORMAL,,,Y,1,DAY 1,2006-11-08T12:09:00,1,2006-11-08,1
ABC,LB,ABC-01-053,21,S8453216,CA,Calcium,CHEMISTRY,9.6,mg/dL,8.9,10.1,9.6,9.6,mg/dL,8.9,10.1,NORMAL,,,,2,WEEK 2,2006-11-27T11:09:00,20,2006-11-22,15
ABC,LB,ABC-01-053,22,S6111233,CHOL,Cholesterol,CHEMISTRY,173,mg/dL,0,239,173,173,mg/dL,0,239,NORMAL,,,,0,SCREENING,2006-11-06T09:08:00,-2,2006-11-01,-7
ABC,LB,ABC-01-053,23,S6784084,CHOL,Cholesterol,CHEMISTRY,156,mg/dL,0,239,156,156,mg/dL,0,239,NORMAL,,,Y,1,DAY 1,2006-11-08T12:09:00,1,2006-11-08,1
ABC,LB,ABC-01-053,24,S8453216,CHOL,Cholesterol,CHEMISTRY,178,mg/dL,0,239,178,178,mg/dL,0,239,NORMAL,,,,2,WEEK 2,2006-11-27T11:09:00,20,2006-11-22,15
ABC,LB,ABC-01-053,25,S6111233,CL,Chloride,CHEMISTRY,106,mmol/L,100,108,106,106,mmol/L,100,108,NORMAL,,,,0,SCREENING,2006-11-06T09:08:00,-2,2006-11-01,-7
ABC,LB,ABC-01-053,26,S6784084,CL,Chloride,CHEMISTRY,104,mmol/L,100,108,104,104,mmol/L,100,108,NORMAL,,,Y,1,DAY 1,2006-11-08T12:09:00,1,2006-11-08,1
ABC,LB,ABC-01-053,27,S8453216,CL,Chloride,CHEMISTRY,105,mmol/L,100,108,105,105,mmol/L,100,108,NORMAL,,,,2,WEEK 2,2006-11-27T11:09:00,20,2006-11-22,15
ABC,LB,ABC-01-053,28,S6111233,CREAT,Creatinine,CHEMISTRY,0.9,mg/dL,0.7,1.2,0.9,0.9,mg/dL,0.7,1.2,NORMAL,,,,0,SCREENING,2006-11-06T09:08:00,-2,2006-11-01,-7
ABC,LB,ABC-01-053,29,S6784084,CREAT,Creatinine,CHEMISTRY,0.9,mg/dL,0.7,1.2,0.9,0.9,mg/dL,0.7,1.2,NORMAL,,,Y,1,DAY 1,2006-11-08T12:09:00,1,2006-11-08,1
ABC,LB,ABC-01-053,30,S8453216,CREAT,Creatinine,CHEMISTRY,0.8,mg/dL,0.7,1.2,0.8,0.8,mg/dL,0.7,1.2,NORMAL,,,,2,WEEK 2,2006-11-27T11:09:00,20,2006-11-22,15
ABC,LB,ABC-01-053,31,S6111233,GLUC,Glucose,CHEMISTRY,94,mg/dL,70,100,94,94,mg/dL,70,100,NORMAL,,,,0,SCREENING,2006-11-06T09:08:00,-2,2006-11-01,-7
ABC,LB,ABC-01-053,32,S6784084,GLUC,Glucose,CHEMISTRY,90,mg/dL,70,100,90,90,mg/dL,70,100,NORMAL,,,Y,1,DAY 1,2006-11-08T12:09:00,1,2006-11-08,1
ABC,LB,ABC-01-053,33,S8453216,GLUC,Glucose,CHEMISTRY,95,mg/dL,70,100,95,95,mg/dL,70,100,NORMAL,,,,2,WEEK 2,2006-11-27T11:09:00,20,2006-11-22,15
ABC,LB,ABC-01-053,34,S6111233,K,Potassium,CHEMISTRY,4.5,mmol/L,3.6,4.8,4.5,4.5,mmol/L,3.6,4.8,NORMAL,,,,0,SCREENING,2006-11-06T09:08:00,-2,2006-11-01,-7
ABC,LB,ABC-01-053,35,S6784084,K,Potassium,CHEMISTRY,4.4,mmol/L,3.6,4.8,4.4,4.4,mmol/L,3.6,4.8,NORMAL,,,Y,1,DAY 1,2006-11-08T12:09:00,1,2006-11-08,1
ABC,LB,ABC-01-053,36,S8453216,K,Potassium,CHEMISTRY,4.4,mmol/L,3.6,4.8,4.4,4.4,mmol/L,3.6,4.8,NORMAL,,,,2,WEEK 2,2006-11-27T11:09:00,20,2006-11-22,15
ABC,LB,ABC-01-053,37,S6784084,LIPASE,Triacylglycerol Lipase,CHEMISTRY,10,U/L,10,73,10,10,U/L,10,73,NORMAL,,,Y,1,DAY 1,2006-11-08T12:09:00,1,2006-11-08,1
ABC,LB,ABC-01-053,38,S8453216,LIPASE,Triacylglycerol Lipase,CHEMISTRY,20,U/L,10,73,20,20,U/L,10,73,NORMAL,,,,2,WEEK 2,2006-11-27T11:09:00,20,2006-11-22,15
ABC,LB,ABC-01-053,39,S6111233,LIPASE,Triacylglycerol Lipase,CHEMISTRY,<10,U/L,10,73,<10,,U/L,10,73,LOW,,,,99,UNSCHEDULED 1,2006-11-06T09:08:00,-2,2006-11-06,-2
ABC,LB,ABC-01-053,40,S6111233,PHOS,Phosphate,CHEMISTRY,3.2,mg/dL,2.5,4.5,3.2,3.2,mg/dL,2.5,4.5,NORMAL,,,,0,SCREENING,2006-11-06T09:08:00,-2,2006-11-01,-7
ABC,LB,ABC-01-053,41,S6784084,PHOS,Phosphate,CHEMISTRY,4.1,mg/dL,2.5,4.5,4.1,4.1,mg/dL,2.5,4.5,NORMAL,,,Y,1,DAY 1,2006-11-08T12:09:00,1,2006-11-08,1
ABC,LB,ABC-01-053,42,S8453216,PHOS,Phosphate,CHEMISTRY,3.9,mg/dL,2.5,4.5,3.9,3.9,mg/dL,2.5,4.5,NORMAL,,,,2,WEEK 2,2006-11-27T11:09:00,20,2006-11-22,15
ABC,LB,ABC-01-053,43,S6111233,PROT,Protein,CHEMISTRY,6.7,g/dL,6.3,7.9,6.7,6.7,g/dL,6.3,7.9,NORMAL,,,,0,SCREENING,2006-11-06T09:08:00,-2,2006-11-01,-7
ABC,LB,ABC-01-053,44,S6784084,PROT,Protein,CHEMISTRY,6.5,g/dL,6.3,7.9,6.5,6.5,g/dL,6.3,7.9,NORMAL,,,Y,1,DAY 1,2006-11-08T12:09:00,1,2006-11-08,1
ABC,LB,ABC-01-053,45,S8453216,PROT,Protein,CHEMISTRY,6.9,g/dL,6.3,7.9,6.9,6.9,g/dL,6.3,7.9,NORMAL,,,,2,WEEK 2,2006-11-27T11:09:00,20,2006-11-22,15
ABC,LB,ABC-01-053,46,S6111233,SODIUM,Sodium,CHEMISTRY,142,mmol/L,135,145,142,142,mmol/L,135,145,NORMAL,,,,0,SCREENING,2006-11-06T09:08:00,-2,2006-11-01,-7
ABC,LB,ABC-01-053,47,S6784084,SODIUM,Sodium,CHEMISTRY,140,mmol/L,135,145,140,140,mmol/L,135,145,NORMAL,,,Y,1,DAY 1,2006-11-08T12:09:00,1,2006-11-08,1
ABC,LB,ABC-01-053,48,S8453216,SODIUM,Sodium,CHEMISTRY,141,mmol/L,135,145,141,141,mmol/L,135,145,NORMAL,,,,2,WEEK 2,2006-11-27T11:09:00,20,2006-11-22,15
ABC,LB,ABC-01-053,49,S6111233,TRIG,Triglycerides,CHEMISTRY,80,mg/dL,0,199,80,80,mg/dL,0,199,NORMAL,,,,0,SCREENING,2006-11-06T09:08:00,-2,2006-11-01,-7
ABC,LB,ABC-01-053,50,S6784084,TRIG,Triglycerides,CHEMISTRY,100,mg/dL,0,199,100,100,mg/dL,0,199,NORMAL,,,Y,1,DAY 1,2006-11-08T12:09:00,1,2006-11-08,1
ABC,LB,ABC-01-053,51,S8453216,TRIG,Triglycerides,CHEMISTRY,68,mg/dL,0,199,68,68,mg/dL,0,199,NORMAL,,,,2,WEEK 2,2006-11-27T11:09:00,20,2006-11-22,15
ABC,LB,ABC-01-053,52,S6111233,URATE,Uric Acid,CHEMISTRY,4.0,mg/dL,2.3,6.0,4.0,4,mg/dL,2.3,6,NORMAL,,,,0,SCREENING,2006-11-06T09:08:00,-2,2006-11-01,-7
ABC,LB,ABC-01-053,53,S6784084,URATE,Uric Acid,CHEMISTRY,3.9,mg/dL,2.3,6.0,3.9,3.9,mg/dL,2.3,6,NORMAL,,,Y,1,DAY 1,2006-11-08T12:09:00,1,2006-11-08,1
ABC,LB,ABC-01-053,54,S8453216,URATE,Uric Acid,CHEMISTRY,4.8,mg/dL,2.3,6.0,4.8,4.8,mg/dL,2.3,6,NORMAL,,,,2,WEEK 2,2006-11-27T11:09:00,20,2006-11-22,15
ABC,LB,ABC-01-053,55,S6754443,HCG,Choriogonadotropin Beta,ENDOCRINE,NEGATIVE,,,,NEGATIVE,,,,,,,,Y,0,SCREENING,2006-11-06T09:08:00,-2,2006-11-01,-7
ABC,LB,ABC-01-053,56,S6866662,OSTEOC,Osteocalcin,ENDOCRINE,17.8,ng/mL,,,17.8,17.8,ug/L,,,,,,Y,1,DAY 1,2006-11-08T12:09:00,1,2006-11-08,1
ABC,LB,ABC-01-053,57,S8385483,PTHI,"Parathyroid Hormone, Intact",ENDOCRINE,16,pg/mL,11,67,1.7,1.7,pmol/L,1.2,7,NORMAL,,,,1,DAY 1,2006-11-08T12:09:00,1,2006-11-08,1
ABC,LB,ABC-01-053,58,S8385483,PTHI,"Parathyroid Hormone, Intact",ENDOCRINE,1.7,pmol/L,1.1,7.1,1.7,1.7,pmol/L,1.1,7.1,NORMAL,,,Y,1,DAY 1,2006-11-08T12:09:00,1,2006-11-08,1
ABC,LB,ABC-01-053,59,S2166170,VITDAT,"1, 25-Dihydroxyvitamin D",ENDOCRINE,68,pg/mL,22,67,7.14,7.14,pmol/L,2.31,7.04,HIGH,,,Y,1,DAY 1,2006-11-08T12:09:00,1,2006-11-08,1
ABC,LB,ABC-01-053,60,S0068605,VITDIT,25-Hydroxyvitamin D,ENDOCRINE,57,ng/mL,25,80,57.0,57,ug/L,25,80,NORMAL,,,Y,1,DAY 1,2006-11-08T12:09:00,1,2006-11-08,1
ABC,LB,ABC-01-053,61,S0068605,VITDIT2,25-Hydroxyvitamin D2,ENDOCRINE,<4.0,ng/mL,,,<4.0,,ug/L,,,,,,Y,1,DAY 1,2006-11-08T12:09:00,1,2006-11-08,1
ABC,LB,ABC-01-053,62,S0068605,VITDIT3,25-Hydroxyvitamin D3,ENDOCRINE,57,ng/mL,,,57.0,57,ug/L,,,,,,Y,1,DAY 1,2006-11-08T12:09:00,1,2006-11-08,1
ABC,LB,ABC-01-053,63,S5943316,BASO,Basophils,HEMATOLOGY,0.09,x10(9)/L,0.00,0.30,0.09,0.09,10^9/L,0,0.3,NORMAL,,,,0,SCREENING,2006-11-06T09:08:00,-2,2006-11-01,-7
ABC,LB,ABC-01-053,64,S8434115,BASO,Basophils,HEMATOLOGY,0.10,x10(9)/L,0.00,0.30,0.10,0.1,10^9/L,0,0.3,NORMAL,,,Y,1,DAY 1,2006-11-08T12:09:00,1,2006-11-08,1
ABC,LB,ABC-01-053,65,S3860830,BASO,Basophils,HEMATOLOGY,0.06,x10(9)/L,0.00,0.30,0.06,0.06,10^9/L,0,0.3,NORMAL,,,,2,WEEK 2,2006-11-27T11:09:00,20,2006-11-22,15
ABC,LB,ABC-01-053,66,S5943316,BASOLE,Basophils/Leukocytes,HEMATOLOGY,1.32,%,0,3,1.32,1.32,%,0,3,NORMAL,,,,0,SCREENING,2006-11-06T09:08:00,-2,2006-11-01,-7
ABC,LB,ABC-01-053,67,S8434115,BASOLE,Basophils/Leukocytes,HEMATOLOGY,1.26,%,0,3,1.26,1.26,%,0,3,NORMAL,,,Y,1,DAY 1,2006-11-08T12:09:00,1,2006-11-08,1
ABC,LB,ABC-01-053,68,S3860830,BASOLE,Basophils/Leukocytes,HEMATOLOGY,1.04,%,0,3,1.04,1.04,%,0,3,NORMAL,,,,2,WEEK 2,2006-11-27T11:09:00,20,2006-11-22,15
ABC,LB,ABC-01-053,69,S5943316,EOS,Eosinophils,HEMATOLOGY,0.19,x10(9)/L,0.05,0.50,0.19,0.19,10^9/L,0.05,0.5,NORMAL,,,,0,SCREENING,2006-11-06T09:08:00,-2,2006-11-01,-7
ABC,LB,ABC-01-053,70,S8434115,EOS,Eosinophils,HEMATOLOGY,0.16,x10(9)/L,0.05,0.50,0.16,0.16,10^9/L,0.05,0.5,NORMAL,,,Y,1,DAY 1,2006-11-08T12:09:00,1,2006-11-08,1
ABC,LB,ABC-01-053,71,S3860830,EOS,Eosinophils,HEMATOLOGY,0.19,x10(9)/L,0.05,0.50,0.19,0.19,10^9/L,0.05,0.5,NORMAL,,,,2,WEEK 2,2006-11-27T11:09:00,20,2006-11-22,15
ABC,LB,ABC-01-053,72,S5943316,EOSLE,Eosinophils/Leukocytes,HEMATOLOGY,2.86,%,0,7,2.86,2.86,%,0,7,NORMAL,,,,0,SCREENING,2006-11-06T09:08:00,-2,2006-11-01,-7
ABC,LB,ABC-01-053,73,S8434115,EOSLE,Eosinophils/Leukocytes,HEMATOLOGY,2.02,%,0,7,2.02,2.02,%,0,7,NORMAL,,,Y,1,DAY 1,2006-11-08T12:09:00,1,2006-11-08,1
ABC,LB,ABC-01-053,74,S3860830,EOSLE,Eosinophils/Leukocytes,HEMATOLOGY,3.24,%,0,7,3.24,3.24,%,0,7,NORMAL,,,,2,WEEK 2,2006-11-27T11:09:00,20,2006-11-22,15
ABC,LB,ABC-01-053,75,S5943316,HCT,Hematocrit,HEMATOLOGY,39.2,%,34.9,44.5,39.2,39.2,%,34.9,44.5,NORMAL,,,,0,SCREENING,2006-11-06T09:08:00,-2,2006-11-01,-7
ABC,LB,ABC-01-053,76,S8434115,HCT,Hematocrit,HEMATOLOGY,35.4,%,34.9,44.5,35.4,35.4,%,34.9,44.5,NORMAL,,,Y,1,DAY 1,2006-11-08T12:09:00,1,2006-11-08,1
ABC,LB,ABC-01-053,77,S3860830,HCT,Hematocrit,HEMATOLOGY,37.5,%,34.9,44.5,37.5,37.5,%,34.9,44.5,NORMAL,,,,2,WEEK 2,2006-11-27T11:09:00,20,2006-11-22,15
ABC,LB,ABC-01-053,78,S5943316,HGB,Hemoglobin,HEMATOLOGY,13.6,g/dL,12.0,15.5,13.6,13.6,g/dL,12,15.5,NORMAL,,,,0,SCREENING,2006-11-06T09:08:00,-2,2006-11-01,-7
ABC,LB,ABC-01-053,79,S8434115,HGB,Hemoglobin,HEMATOLOGY,12.4,g/dL,12.0,15.5,12.4,12.4,g/dL,12,15.5,NORMAL,,,Y,1,DAY 1,2006-11-08T12:09:00,1,2006-11-08,1
ABC,LB,ABC-01-053,80,S3860830,HGB,Hemoglobin,HEMATOLOGY,13.0,g/dL,12.0,15.5,13.0,13,g/dL,12,15.5,NORMAL,,,,2,WEEK 2,2006-11-27T11:09:00,20,2006-11-22,15
ABC,LB,ABC-01-053,81,S5943316,LYM,Lymphocytes,HEMATOLOGY,1.51,x10(9)/L,0.90,2.90,1.51,1.51,10^9/L,0.9,2.9,NORMAL,,,,0,SCREENING,2006-11-06T09:08:00,-2,2006-11-01,-7
ABC,LB,ABC-01-053,82,S8434115,LYM,Lymphocytes,HEMATOLOGY,1.84,x10(9)/L,0.90,2.90,1.84,1.84,10^9/L,0.9,2.9,NORMAL,,,Y,1,DAY 1,2006-11-08T12:09:00,1,2006-11-08,1
ABC,LB,ABC-01-053,83,S3860830,LYM,Lymphocytes,HEMATOLOGY,1.39,x10(9)/L,0.90,2.90,1.39,1.39,10^9/L,0.9,2.9,NORMAL,,,,2,WEEK 2,2006-11-27T11:09:00,20,2006-11-22,15
ABC,LB,ABC-01-053,84,S5943316,LYMLE,Lymphocytes/Leukocytes,HEMATOLOGY,22.40,%,17,42,22.40,22.4,%,17,42,NORMAL,,,,0,SCREENING,2006-11-06T09:08:00,-2,2006-11-01,-7
ABC,LB,ABC-01-053,85,S8434115,LYMLE,Lymphocytes/Leukocytes,HEMATOLOGY,23.57,%,17,42,23.57,23.57,%,17,42,NORMAL,,,Y,1,DAY 1,2006-11-08T12:09:00,1,2006-11-08,1
ABC,LB,ABC-01-053,86,S3860830,LYMLE,Lymphocytes/Leukocytes,HEMATOLOGY,24.04,%,17,42,24.04,24.04,%,17,42,NORMAL,,,,2,WEEK 2,2006-11-27T11:09:00,20,2006-11-22,15
ABC,LB,ABC-01-053,87,S5943316,MCH,Ery. Mean Corpuscular Hemoglobin,HEMATOLOGY,31.5,pg,27.4,33.0,31.5,31.5,pg,27.4,33,NORMAL,,,,0,SCREENING,2006-11-06T09:08:00,-2,2006-11-01,-7
ABC,LB,ABC-01-053,88,S8434115,MCH,Ery. Mean Corpuscular Hemoglobin,HEMATOLOGY,31.8,pg,27.4,33.0,31.8,31.8,pg,27.4,33,NORMAL,,,Y,1,DAY 1,2006-11-08T12:09:00,1,2006-11-08,1
ABC,LB,ABC-01-053,89,S3860830,MCH,Ery. Mean Corpuscular Hemoglobin,HEMATOLOGY,31.5,pg,27.4,33.0,31.5,31.5,pg,27.4,33,NORMAL,,,,2,WEEK 2,2006-11-27T11:09:00,20,2006-11-22,15
ABC,LB,ABC-01-053,90,S5943316,MCHC,Ery. Mean Corpuscular HGB Concentration,HEMATOLOGY,34.7,g/dL,33.1,34.4,34.7,34.7,g/dL,33.1,34.4,HIGH,,,,0,SCREENING,2006-11-06T09:08:00,-2,2006-11-01,-7
ABC,LB,ABC-01-053,91,S8434115,MCHC,Ery. Mean Corpuscular HGB Concentration,HEMATOLOGY,35.1,g/dL,33.1,34.4,35.1,35.1,g/dL,33.1,34.4,HIGH,,,Y,1,DAY 1,2006-11-08T12:09:00,1,2006-11-08,1
ABC,LB,ABC-01-053,92,S3860830,MCHC,Ery. Mean Corpuscular HGB Concentration,HEMATOLOGY,34.7,g/dL,33.1,34.4,34.7,34.7,g/dL,33.1,34.4,HIGH,,,,2,WEEK 2,2006-11-27T11:09:00,20,2006-11-22,15
ABC,LB,ABC-01-053,93,S5943316,MCV,Ery. Mean Corpuscular Volume,HEMATOLOGY,90.8,fL,81.6,98.3,90.8,90.8,fL,81.6,98.3,NORMAL,,,,0,SCREENING,2006-11-06T09:08:00,-2,2006-11-01,-7
ABC,LB,ABC-01-053,94,S8434115,MCV,Ery. Mean Corpuscular Volume,HEMATOLOGY,90.6,fL,81.6,98.3,90.6,90.6,fL,81.6,98.3,NORMAL,,,Y,1,DAY 1,2006-11-08T12:09:00,1,2006-11-08,1
ABC,LB,ABC-01-053,95,S3860830,MCV,Ery. Mean Corpuscular Volume,HEMATOLOGY,90.7,fL,81.6,98.3,90.7,90.7,fL,81.6,98.3,NORMAL,,,,2,WEEK 2,2006-11-27T11:09:00,20,2006-11-22,15
ABC,LB,ABC-01-053,96,S5943316,MONO,Monocytes,HEMATOLOGY,0.39,x10(9)/L,0.30,0.90,0.39,0.39,10^9/L,0.3,0.9,NORMAL,,,,0,SCREENING,2006-11-06T09:08:00,-2,2006-11-01,-7
ABC,LB,ABC-01-053,97,S8434115,MONO,Monocytes,HEMATOLOGY,0.46,x10(9)/L,0.30,0.90,0.46,0.46,10^9/L,0.3,0.9,NORMAL,,,Y,1,DAY 1,2006-11-08T12:09:00,1,2006-11-08,1
ABC,LB,ABC-01-053,98,S3860830,MONO,Monocytes,HEMATOLOGY,0.49,x10(9)/L,0.30,0.90,0.49,0.49,10^9/L,0.3,0.9,NORMAL,,,,2,WEEK 2,2006-11-27T11:09:00,20,2006-11-22,15
ABC,LB,ABC-01-053,99,S5943316,MONOLE,Monocytes/Leukocytes,HEMATOLOGY,5.88,%,4,15,5.88,5.88,%,4,15,NORMAL,,,,0,SCREENING,2006-11-06T09:08:00,-2,2006-11-01,-7
ABC,LB,ABC-01-053,100,S8434115,MONOLE,Monocytes/Leukocytes,HEMATOLOGY,5.90,%,4,15,5.90,5.9,%,4,15,NORMAL,,,Y,1,DAY 1,2006-11-08T12:09:00,1,2006-11-08,1
ABC,LB,ABC-01-053,101,S3860830,MONOLE,Monocytes/Leukocytes,HEMATOLOGY,8.48,%,4,15,8.48,8.48,%,4,15,NORMAL,,,,2,WEEK 2,2006-11-27T11:09:00,20,2006-11-22,15
ABC,LB,ABC-01-053,102,S5943316,NEUT,Neutrophils,HEMATOLOGY,4.54,x10(9)/L,1.70,7.00,4.54,4.54,10^9/L,1.7,7,NORMAL,,,,0,SCREENING,2006-11-06T09:08:00,-2,2006-11-01,-7
ABC,LB,ABC-01-053,103,S8434115,NEUT,Neutrophils,HEMATOLOGY,5.24,x10(9)/L,1.70,7.00,5.24,5.24,10^9/L,1.7,7,NORMAL,,,Y,1,DAY 1,2006-11-08T12:09:00,1,2006-11-08,1
ABC,LB,ABC-01-053,104,S3860830,NEUT,Neutrophils,HEMATOLOGY,3.65,x10(9)/L,1.70,7.00,3.65,3.65,10^9/L,1.7,7,NORMAL,,,,2,WEEK 2,2006-11-27T11:09:00,20,2006-11-22,15
ABC,LB,ABC-01-053,105,S5943316,NEUTLE,Neutrophils/Leukocytes,HEMATOLOGY,67.54,%,44,71,67.54,67.54,%,44,71,NORMAL,,,,0,SCREENING,2006-11-06T09:08:00,-2,2006-11-01,-7
ABC,LB,ABC-01-053,106,S8434115,NEUTLE,Neutrophils/Leukocytes,HEMATOLOGY,67.25,%,44,71,67.25,67.25,%,44,71,NORMAL,,,Y,1,DAY 1,2006-11-08T12:09:00,1,2006-11-08,1
ABC,LB,ABC-01-053,107,S3860830,NEUTLE,Neutrophils/Leukocytes,HEMATOLOGY,63.20,%,44,71,63.20,63.2,%,44,71,NORMAL,,,,2,WEEK 2,2006-11-27T11:09:00,20,2006-11-22,15
ABC,LB,ABC-01-053,108,S5943316,PLAT,Platelets,HEMATOLOGY,269,x10(9)/L,150,450,269,269,10^9/L,150,450,NORMAL,,,,0,SCREENING,2006-11-06T09:08:00,-2,2006-11-01,-7
ABC,LB,ABC-01-053,109,S8434115,PLAT,Platelets,HEMATOLOGY,258,x10(9)/L,150,450,258,258,10^9/L,150,450,NORMAL,,,Y,1,DAY 1,2006-11-08T12:09:00,1,2006-11-08,1
ABC,LB,ABC-01-053,110,S3860830,PLAT,Platelets,HEMATOLOGY,244,x10(9)/L,150,450,244,244,10^9/L,150,450,NORMAL,,,,2,WEEK 2,2006-11-27T11:09:00,20,2006-11-22,15
ABC,LB,ABC-01-053,111,S5943316,RBC,Erythrocytes,HEMATOLOGY,4.31,x10(12)/L,3.90,5.03,4.31,4.31,10^12/L,3.9,5.03,NORMAL,,,,0,SCREENING,2006-11-06T09:08:00,-2,2006-11-01,-7
ABC,LB,ABC-01-053,112,S8434115,RBC,Erythrocytes,HEMATOLOGY,3.91,x10(12)/L,3.90,5.03,3.91,3.91,10^12/L,3.9,5.03,NORMAL,,,Y,1,DAY 1,2006-11-08T12:09:00,1,2006-11-08,1
ABC,LB,ABC-01-053,113,S3860830,RBC,Erythrocytes,HEMATOLOGY,4.13,x10(12)/L,3.90,5.03,4.13,4.13,10^12/L,3.9,5.03,NORMAL,,,,2,WEEK 2,2006-11-27T11:09:00,20,2006-11-22,15
ABC,LB,ABC-01-053,114,S5943316,RDW,Erythrocytes Distribution Width,HEMATOLOGY,12.4,%,11.9,15.5,12.4,12.4,%,11.9,15.5,NORMAL,,,,0,SCREENING,2006-11-06T09:08:00,-2,2006-11-01,-7
ABC,LB,ABC-01-053,115,S8434115,RDW,Erythrocytes Distribution Width,HEMATOLOGY,11.9,%,11.9,15.5,11.9,11.9,%,11.9,15.5,NORMAL,,,Y,1,DAY 1,2006-11-08T12:09:00,1,2006-11-08,1
ABC,LB,ABC-01-053,116,S3860830,RDW,Erythrocytes Distribution Width,HEMATOLOGY,12.4,%,11.9,15.5,12.4,12.4,%,11.9,15.5,NORMAL,,,,2,WEEK 2,2006-11-27T11:09:00,20,2006-11-22,15
ABC,LB,ABC-01-053,117,S5943316,WBC,Leukocytes,HEMATOLOGY,6.7,x10(9)/L,3.5,10.5,6.7,6.7,10^9/L,3.5,10.5,NORMAL,,,,0,SCREENING,2006-11-06T09:08:00,-2,2006-11-01,-7
ABC,LB,ABC-01-053,118,S8434115,WBC,Leukocytes,HEMATOLOGY,7.8,x10(9)/L,3.5,10.5,7.8,7.8,10^9/L,3.5,10.5,NORMAL,,,Y,1,DAY 1,2006-11-08T12:09:00,1,2006-11-08,1
ABC,LB,ABC-01-053,119,S3860830,WBC,Leukocytes,HEMATOLOGY,5.8,x10(9)/L,3.5,10.5,5.8,5.8,10^9/L,3.5,10.5,NORMAL,,,,2,WEEK 2,2006-11-27T11:09:00,20,2006-11-22,15
ABC,LB,ABC-01-053,120,S1803619,BACT,Bacteria,URINALYSIS,PRESENT,,,,PRESENT,,,,,,,,,2,WEEK 2,2006-11-27T11:09:00,20,2006-11-22,15
ABC,LB,ABC-01-053,121,S9741018,BILI,Bilirubin,URINALYSIS,NEGATIVE,,,,NEGATIVE,,,,,,,,,0,SCREENING,2006-11-06T13:53:00,-2,2006-11-01,-7
ABC,LB,ABC-01-053,122,S0233511,BILI,Bilirubin,URINALYSIS,NEGATIVE,,,,NEGATIVE,,,,,,,,Y,1,DAY 1,2006-11-08T12:30:00,1,2006-11-08,1
ABC,LB,ABC-01-053,123,S1803619,BILI,Bilirubin,URINALYSIS,NEGATIVE,,,,NEGATIVE,,,,,,,,,2,WEEK 2,2006-11-27T11:09:00,20,2006-11-22,15
ABC,LB,ABC-01-053,124,S5101807,CACONC,Calcium Concentration,URINALYSIS,102,mg/L,,,102.000000,102,mg/L,,,,,,,0,SCREENING,2006-11-06T13:53:00,-2,2006-11-01,-7
ABC,LB,ABC-01-053,125,S6003624,CACONC,Calcium Concentration,URINALYSIS,105,mg/L,,,105.000000,105,mg/L,,,,,,Y,1,DAY 1,2006-11-08T12:30:00,1,2006-11-08,1
ABC,LB,ABC-01-053,126,S0886674,CACONC,Calcium Concentration,URINALYSIS,169,mg/L,,,169.000000,169,mg/L,,,,,,,2,WEEK 2,2006-11-27T11:09:00,20,2006-11-22,15
ABC,LB,ABC-01-053,127,S5101807,CACREAT,Calcium/Creatinine,URINALYSIS,0.31,,,,0.31,0.31,,,,,,,,0,SCREENING,2006-11-06T13:53:00,-2,2006-11-01,-7
ABC,LB,ABC-01-053,128,S6003624,CACREAT,Calcium/Creatinine,URINALYSIS,0.17,,,,0.17,0.17,,,,,,,Y,1,DAY 1,2006-11-08T12:30:00,1,2006-11-08,1
ABC,LB,ABC-01-053,129,S0886674,CACREAT,Calcium/Creatinine,URINALYSIS,0.12,,,,0.12,0.12,,,,,,,,2,WEEK 2,2006-11-27T11:09:00,20,2006-11-22,15
ABC,LB,ABC-01-053,130,S5101807,CREACONC,Creatinine Concentration,URINALYSIS,33,mg/dL,,,33,33,mg/dL,,,,,,,0,SCREENING,2006-11-06T13:53:00,-2,2006-11-01,-7
ABC,LB,ABC-01-053,131,S6003624,CREACONC,Creatinine Concentration,URINALYSIS,62,mg/dL,,,62,62,mg/dL,,,,,,Y,1,DAY 1,2006-11-08T12:30:00,1,2006-11-08,1
ABC,LB,ABC-01-053,132,S0886674,CREACONC,Creatinine Concentration,URINALYSIS,144,mg/dL,,,144,144,mg/dL,,,,,,,2,WEEK 2,2006-11-27T11:09:00,20,2006-11-22,15
ABC,LB,ABC-01-053,133,S0233511,EPISQCE,Squamous Epithelial Cells,URINALYSIS,4-10,/hpf,,,4-10,,/HPF,,,,,,Y,1,DAY 1,2006-11-08T12:30:00,1,2006-11-08,1
ABC,LB,ABC-01-053,134,S1803619,EPISQCE,Squamous Epithelial Cells,URINALYSIS,11-20,/hpf,,,11-20,,/HPF,,,,,,,2,WEEK 2,2006-11-27T11:09:00,20,2006-11-22,15
ABC,LB,ABC-01-053,135,S9741018,GLUC,Glucose,URINALYSIS,NEGATIVE,g/dL,,,NEGATIVE,,g/dL,,,,,,,0,SCREENING,2006-11-06T13:53:00,-2,2006-11-01,-7
ABC,LB,ABC-01-053,136,S0233511,GLUC,Glucose,URINALYSIS,NEGATIVE,g/dL,,,NEGATIVE,,g/dL,,,,,,Y,1,DAY 1,2006-11-08T12:30:00,1,2006-11-08,1
