STUDYID,DOMAIN,USUBJID,QSSEQ,QSTESTCD,QSTEST,QSCAT,QSSCAT,QSORRES,QSSTRESC,QSSTRESN,QSBLFL,QSDRVFL,VISITNUM,VISIT,QSDTC,QSDY
ABC,QS,ABC-01-049,1,AREASCOR,Area Score (0-6),AAPASI,LOWER EXTREMITIES,0,0,0,Y,,1,DAY 1,2006-11-07,1
ABC,QS,ABC-01-049,2,AREASCOR,Area Score (0-6),AAPASI,LOWER EXTREMITIES,0,0,0,,,2,WEEK 2,2006-11-21,15
ABC,QS,ABC-01-049,3,AREASCOR,Area Score (0-6),AAPASI,LOWER EXTREMITIES,0,0,0,,,4,WEEK 4,2006-12-07,31
ABC,QS,ABC-01-049,4,AREASCOR,Area Score (0-6),AAPASI,LOWER EXTREMITIES,0,0,0,,,6,WEEK 6,2006-12-28,52
ABC,QS,ABC-01-049,5,AREASCOR,Area Score (0-6),AAPASI,LOWER EXTREMITIES,0,0,0,,,8,WEEK 8,2007-01-11,66
ABC,QS,ABC-01-049,6,AREASCOR,Area Score (0-6),AAPASI,LOWER EXTREMITIES,0,0,0,,,12,WEEK 12,2007-02-09,95
ABC,QS,ABC-01-049,7,AREASCOR,Area Score (0-6),AAPASI,LOWER EXTREMITIES,0,0,0,,,16,WEEK 16,2007-03-13,127
ABC,QS,ABC-01-049,8,ERYTHEMA,Erythema (0-4),AAPASI,LOWER EXTREMITIES,0,0,0,Y,,1,DAY 1,2006-11-07,1
ABC,QS,ABC-01-049,9,ERYTHEMA,Erythema (0-4),AAPASI,LOWER EXTREMITIES,0,0,0,,,2,WEEK 2,2006-11-21,15
ABC,QS,ABC-01-049,10,ERYTHEMA,Erythema (0-4),AAPASI,LOWER EXTREMITIES,0,0,0,,,4,WEEK 4,2006-12-07,31
ABC,QS,ABC-01-049,11,ERYTHEMA,Erythema (0-4),AAPASI,LOWER EXTREMITIES,0,0,0,,,6,WEEK 6,2006-12-28,52
ABC,QS,ABC-01-049,12,ERYTHEMA,Erythema (0-4),AAPASI,LOWER EXTREMITIES,0,0,0,,,8,WEEK 8,2007-01-11,66
ABC,QS,ABC-01-049,13,ERYTHEMA,Erythema (0-4),AAPASI,LOWER EXTREMITIES,0,0,0,,,12,WEEK 12,2007-02-09,95
ABC,QS,ABC-01-049,14,ERYTHEMA,Erythema (0-4),AAPASI,LOWER EXTREMITIES,0,0,0,,,16,WEEK 16,2007-03-13,127
ABC,QS,ABC-01-049,15,SCALE,Scale (0-4),AAPASI,LOWER EXTREMITIES,0,0,0,Y,,1,DAY 1,2006-11-07,1
ABC,QS,ABC-01-049,16,SCALE,Scale (0-4),AAPASI,LOWER EXTREMITIES,0,0,0,,,2,WEEK 2,2006-11-21,15
ABC,QS,ABC-01-049,17,SCALE,Scale (0-4),AAPASI,LOWER EXTREMITIES,0,0,0,,,4,WEEK 4,2006-12-07,31
ABC,QS,ABC-01-049,18,SCALE,Scale (0-4),AAPASI,LOWER EXTREMITIES,0,0,0,,,6,WEEK 6,2006-12-28,52
ABC,QS,ABC-01-049,19,SCALE,Scale (0-4),AAPASI,LOWER EXTREMITIES,0,0,0,,,8,WEEK 8,2007-01-11,66
ABC,QS,ABC-01-049,20,SCALE,Scale (0-4),AAPASI,LOWER EXTREMITIES,0,0,0,,,12,WEEK 12,2007-02-09,95
ABC,QS,ABC-01-049,21,SCALE,Scale (0-4),AAPASI,LOWER EXTREMITIES,0,0,0,,,16,WEEK 16,2007-03-13,127
ABC,QS,ABC-01-049,22,THCKNESS,Induration (0-4),AAPASI,LOWER EXTREMITIES,0,0,0,Y,,1,DAY 1,2006-11-07,1
ABC,QS,ABC-01-049,23,THCKNESS,Induration (0-4),AAPASI,LOWER EXTREMITIES,0,0,0,,,2,WEEK 2,2006-11-21,15
ABC,QS,ABC-01-049,24,THCKNESS,Induration (0-4),AAPASI,LOWER EXTREMITIES,0,0,0,,,4,WEEK 4,2006-12-07,31
ABC,QS,ABC-01-049,25,THCKNESS,Induration (0-4),AAPASI,LOWER EXTREMITIES,0,0,0,,,6,WEEK 6,2006-12-28,52
ABC,QS,ABC-01-049,26,THCKNESS,Induration (0-4),AAPASI,LOWER EXTREMITIES,0,0,0,,,8,WEEK 8,2007-01-11,66
ABC,QS,ABC-01-049,27,THCKNESS,Induration (0-4),AAPASI,LOWER EXTREMITIES,0,0,0,,,12,WEEK 12,2007-02-09,95
ABC,QS,ABC-01-049,28,THCKNESS,Induration (0-4),AAPASI,LOWER EXTREMITIES,0,0,0,,,16,WEEK 16,2007-03-13,127
ABC,QS,ABC-01-049,29,AREASCOR,Area Score (0-6),AAPASI,TRUNK,3,3,3,Y,,1,DAY 1,2006-11-07,1
ABC,QS,ABC-01-049,30,AREASCOR,Area Score (0-6),AAPASI,TRUNK,2,2,2,,,2,WEEK 2,2006-11-21,15
ABC,QS,ABC-01-049,31,AREASCOR,Area Score (0-6),AAPASI,TRUNK,2,2,2,,,4,WEEK 4,2006-12-07,31
ABC,QS,ABC-01-049,32,AREASCOR,Area Score (0-6),AAPASI,TRUNK,2,2,2,,,6,WEEK 6,2006-12-28,52
ABC,QS,ABC-01-049,33,AREASCOR,Area Score (0-6),AAPASI,TRUNK,2,2,2,,,8,WEEK 8,2007-01-11,66
ABC,QS,ABC-01-049,34,AREASCOR,Area Score (0-6),AAPASI,TRUNK,2,2,2,,,12,WEEK 12,2007-02-09,95
ABC,QS,ABC-01-049,35,AREASCOR,Area Score (0-6),AAPASI,TRUNK,3,3,3,,,16,WEEK 16,2007-03-13,127
ABC,QS,ABC-01-049,36,ERYTHEMA,Erythema (0-4),AAPASI,TRUNK,3,3,3,Y,,1,DAY 1,2006-11-07,1
ABC,QS,ABC-01-049,37,ERYTHEMA,Erythema (0-4),AAPASI,TRUNK,2,2,2,,,2,WEEK 2,2006-11-21,15
ABC,QS,ABC-01-049,38,ERYTHEMA,Erythema (0-4),AAPASI,TRUNK,3,3,3,,,4,WEEK 4,2006-12-07,31
ABC,QS,ABC-01-049,39,ERYTHEMA,Erythema (0-4),AAPASI,TRUNK,2,2,2,,,6,WEEK 6,2006-12-28,52
ABC,QS,ABC-01-049,40,ERYTHEMA,Erythema (0-4),AAPASI,TRUNK,2,2,2,,,8,WEEK 8,2007-01-11,66
ABC,QS,ABC-01-049,41,ERYTHEMA,Erythema (0-4),AAPASI,TRUNK,2,2,2,,,12,WEEK 12,2007-02-09,95
ABC,QS,ABC-01-049,42,ERYTHEMA,Erythema (0-4),AAPASI,TRUNK,3,3,3,,,16,WEEK 16,2007-03-13,127
ABC,QS,ABC-01-049,43,SCALE,Scale (0-4),AAPASI,TRUNK,3,3,3,Y,,1,DAY 1,2006-11-07,1
ABC,QS,ABC-01-049,44,SCALE,Scale (0-4),AAPASI,TRUNK,2,2,2,,,2,WEEK 2,2006-11-21,15
ABC,QS,ABC-01-049,45,SCALE,Scale (0-4),AAPASI,TRUNK,3,3,3,,,4,WEEK 4,2006-12-07,31
ABC,QS,ABC-01-049,46,SCALE,Scale (0-4),AAPASI,TRUNK,3,3,3,,,6,WEEK 6,2006-12-28,52
ABC,QS,ABC-01-049,47,SCALE,Scale (0-4),AAPASI,TRUNK,2,2,2,,,8,WEEK 8,2007-01-11,66
ABC,QS,ABC-01-049,48,SCALE,Scale (0-4),AAPASI,TRUNK,3,3,3,,,12,WEEK 12,2007-02-09,95
ABC,QS,ABC-01-049,49,SCALE,Scale (0-4),AAPASI,TRUNK,3,3,3,,,16,WEEK 16,2007-03-13,127
ABC,QS,ABC-01-049,50,THCKNESS,Induration (0-4),AAPASI,TRUNK,3,3,3,Y,,1,DAY 1,2006-11-07,1
ABC,QS,ABC-01-049,51,THCKNESS,Induration (0-4),AAPASI,TRUNK,1,1,1,,,2,WEEK 2,2006-11-21,15
ABC,QS,ABC-01-049,52,THCKNESS,Induration (0-4),AAPASI,TRUNK,3,3,3,,,4,WEEK 4,2006-12-07,31
ABC,QS,ABC-01-049,53,THCKNESS,Induration (0-4),AAPASI,TRUNK,2,2,2,,,6,WEEK 6,2006-12-28,52
ABC,QS,ABC-01-049,54,THCKNESS,Induration (0-4),AAPASI,TRUNK,2,2,2,,,8,WEEK 8,2007-01-11,66
ABC,QS,ABC-01-049,55,THCKNESS,Induration (0-4),AAPASI,TRUNK,2,2,2,,,12,WEEK 12,2007-02-09,95
ABC,QS,ABC-01-049,56,THCKNESS,Induration (0-4),AAPASI,TRUNK,2,2,2,,,16,WEEK 16,2007-03-13,127
ABC,QS,ABC-01-049,57,AREASCOR,Area Score (0-6),AAPASI,UPPER EXTREMITIES,3,3,3,Y,,1,DAY 1,2006-11-07,1
ABC,QS,ABC-01-049,58,AREASCOR,Area Score (0-6),AAPASI,UPPER EXTREMITIES,2,2,2,,,2,WEEK 2,2006-11-21,15
ABC,QS,ABC-01-049,59,AREASCOR,Area Score (0-6),AAPASI,UPPER EXTREMITIES,2,2,2,,,4,WEEK 4,2006-12-07,31
ABC,QS,ABC-01-049,60,AREASCOR,Area Score (0-6),AAPASI,UPPER EXTREMITIES,1,1,1,,,6,WEEK 6,2006-12-28,52
ABC,QS,ABC-01-049,61,AREASCOR,Area Score (0-6),AAPASI,UPPER EXTREMITIES,1,1,1,,,8,WEEK 8,2007-01-11,66
ABC,QS,ABC-01-049,62,AREASCOR,Area Score (0-6),AAPASI,UPPER EXTREMITIES,1,1,1,,,12,WEEK 12,2007-02-09,95
ABC,QS,ABC-01-049,63,AREASCOR,Area Score (0-6),AAPASI,UPPER EXTREMITIES,1,1,1,,,16,WEEK 16,2007-03-13,127
ABC,QS,ABC-01-049,64,ERYTHEMA,Erythema (0-4),AAPASI,UPPER EXTREMITIES,3,3,3,Y,,1,DAY 1,2006-11-07,1
ABC,QS,ABC-01-049,65,ERYTHEMA,Erythema (0-4),AAPASI,UPPER EXTREMITIES,2,2,2,,,2,WEEK 2,2006-11-21,15
ABC,QS,ABC-01-049,66,ERYTHEMA,Erythema (0-4),AAPASI,UPPER EXTREMITIES,3,3,3,,,4,WEEK 4,2006-12-07,31
ABC,QS,ABC-01-049,67,ERYTHEMA,Erythema (0-4),AAPASI,UPPER EXTREMITIES,2,2,2,,,6,WEEK 6,2006-12-28,52
ABC,QS,ABC-01-049,68,ERYTHEMA,Erythema (0-4),AAPASI,UPPER EXTREMITIES,2,2,2,,,8,WEEK 8,2007-01-11,66
ABC,QS,ABC-01-049,69,ERYTHEMA,Erythema (0-4),AAPASI,UPPER EXTREMITIES,2,2,2,,,12,WEEK 12,2007-02-09,95
ABC,QS,ABC-01-049,70,ERYTHEMA,Erythema (0-4),AAPASI,UPPER EXTREMITIES,3,3,3,,,16,WEEK 16,2007-03-13,127
ABC,QS,ABC-01-049,71,SCALE,Scale (0-4),AAPASI,UPPER EXTREMITIES,3,3,3,Y,,1,DAY 1,2006-11-07,1
ABC,QS,ABC-01-049,72,SCALE,Scale (0-4),AAPASI,UPPER EXTREMITIES,0,0,0,,,2,WEEK 2,2006-11-21,15
ABC,QS,ABC-01-049,73,SCALE,Scale (0-4),AAPASI,UPPER EXTREMITIES,3,3,3,,,4,WEEK 4,2006-12-07,31
ABC,QS,ABC-01-049,74,SCALE,Scale (0-4),AAPASI,UPPER EXTREMITIES,3,3,3,,,6,WEEK 6,2006-12-28,52
ABC,QS,ABC-01-049,75,SCALE,Scale (0-4),AAPASI,UPPER EXTREMITIES,2,2,2,,,8,WEEK 8,2007-01-11,66
ABC,QS,ABC-01-049,76,SCALE,Scale (0-4),AAPASI,UPPER EXTREMITIES,3,3,3,,,12,WEEK 12,2007-02-09,95
ABC,QS,ABC-01-049,77,SCALE,Scale (0-4),AAPASI,UPPER EXTREMITIES,3,3,3,,,16,WEEK 16,2007-03-13,127
ABC,QS,ABC-01-049,78,THCKNESS,Induration (0-4),AAPASI,UPPER EXTREMITIES,2,2,2,Y,,1,DAY 1,2006-11-07,1
ABC,QS,ABC-01-049,79,THCKNESS,Induration (0-4),AAPASI,UPPER EXTREMITIES,0,0,0,,,2,WEEK 2,2006-11-21,15
ABC,QS,ABC-01-049,80,THCKNESS,Induration (0-4),AAPASI,UPPER EXTREMITIES,3,3,3,,,4,WEEK 4,2006-12-07,31
ABC,QS,ABC-01-049,81,THCKNESS,Induration (0-4),AAPASI,UPPER EXTREMITIES,2,2,2,,,6,WEEK 6,2006-12-28,52
ABC,QS,ABC-01-049,82,THCKNESS,Induration (0-4),AAPASI,UPPER EXTREMITIES,2,2,2,,,8,WEEK 8,2007-01-11,66
ABC,QS,ABC-01-049,83,THCKNESS,Induration (0-4),AAPASI,UPPER EXTREMITIES,2,2,2,,,12,WEEK 12,2007-02-09,95
ABC,QS,ABC-01-049,84,THCKNESS,Induration (0-4),AAPASI,UPPER EXTREMITIES,2,2,2,,,16,WEEK 16,2007-03-13,127
ABC,QS,ABC-01-049,85,PRURPS,Pruritus Point Scale,PRURITUS ASSESSMENT,,0,0,0,Y,,1,DAY 1,2006-11-07,1
ABC,QS,ABC-01-049,86,PRURPS,Pruritus Point Scale,PRURITUS ASSESSMENT,,0,0,0,,,2,WEEK 2,2006-11-21,15
ABC,QS,ABC-01-049,87,PRURPS,Pruritus Point Scale,PRURITUS ASSESSMENT,,1,1,1,,,4,WEEK 4,2006-12-07,31
ABC,QS,ABC-01-049,88,PRURPS,Pruritus Point Scale,PRURITUS ASSESSMENT,,1,1,1,,,6,WEEK 6,2006-12-28,52
ABC,QS,ABC-01-049,89,PRURPS,Pruritus Point Scale,PRURITUS ASSESSMENT,,1,1,1,,,8,WEEK 8,2007-01-11,66
ABC,QS,ABC-01-049,90,PRURPS,Pruritus Point Scale,PRURITUS ASSESSMENT,,3,3,3,,,12,WEEK 12,2007-02-09,95
ABC,QS,ABC-01-049,91,PRURPS,Pruritus Point Scale,PRURITUS ASSESSMENT,,3,3,3,,,16,WEEK 16,2007-03-13,127
ABC,QS,ABC-01-049,92,PSGA,PSGA Score,PSGA,,3,3,3,Y,,1,DAY 1,2006-11-07,1
ABC,QS,ABC-01-049,93,PSGA,PSGA Score,PSGA,,2,2,2,,,2,WEEK 2,2006-11-21,15
ABC,QS,ABC-01-049,94,PSGA,PSGA Score,PSGA,,3,3,3,,,4,WEEK 4,2006-12-07,31
ABC,QS,ABC-01-049,95,PSGA,PSGA Score,PSGA,,2,2,2,,,6,WEEK 6,2006-12-28,52
ABC,QS,ABC-01-049,96,PSGA,PSGA Score,PSGA,,2,2,2,,,8,WEEK 8,2007-01-11,66
ABC,QS,ABC-01-049,97,PSGA,PSGA Score,PSGA,,2,2,2,,,12,WEEK 12,2007-02-09,95
ABC,QS,ABC-01-049,98,PSGA,PSGA Score,PSGA,,3,3,3,,,16,WEEK 16,2007-03-13,127
ABC,QS,ABC-01-049,99,BODYAC,Body Area Code,PSI,PLAQUE 1,19,19,19,Y,,1,DAY 1,2006-11-07,1
ABC,QS,ABC-01-049,100,BODYAC,Body Area Code,PSI,PLAQUE 1,19,19,19,,,2,WEEK 2,2006-11-21,15
ABC,QS,ABC-01-049,101,BODYAC,Body Area Code,PSI,PLAQUE 1,19,19,19,,,4,WEEK 4,2006-12-07,31
ABC,QS,ABC-01-049,102,BODYAC,Body Area Code,PSI,PLAQUE 1,19,19,19,,,6,WEEK 6,2006-12-28,52
ABC,QS,ABC-01-049,103,BODYAC,Body Area Code,PSI,PLAQUE 1,19,19,19,,,8,WEEK 8,2007-01-11,66
ABC,QS,ABC-01-049,104,BODYAC,Body Area Code,PSI,PLAQUE 1,19,19,19,,,12,WEEK 12,2007-02-09,95
ABC,QS,ABC-01-049,105,BODYAC,Body Area Code,PSI,PLAQUE 1,19,19,19,,,16,WEEK 16,2007-03-13,127
ABC,QS,ABC-01-049,106,CPSS,CPSS,PSI,PLAQUE 1,8,8,8,Y,Y,1,DAY 1,2006-11-07,1
ABC,QS,ABC-01-049,107,CPSS,CPSS,PSI,PLAQUE 1,3,3,3,,Y,2,WEEK 2,2006-11-21,15
ABC,QS,ABC-01-049,108,CPSS,CPSS,PSI,PLAQUE 1,9,9,9,,Y,4,WEEK 4,2006-12-07,31
ABC,QS,ABC-01-049,109,CPSS,CPSS,PSI,PLAQUE 1,7,7,7,,Y,6,WEEK 6,2006-12-28,52
ABC,QS,ABC-01-049,110,CPSS,CPSS,PSI,PLAQUE 1,6,6,6,,Y,8,WEEK 8,2007-01-11,66
ABC,QS,ABC-01-049,111,CPSS,CPSS,PSI,PLAQUE 1,7,7,7,,Y,12,WEEK 12,2007-02-09,95
ABC,QS,ABC-01-049,112,CPSS,CPSS,PSI,PLAQUE 1,8,8,8,,Y,16,WEEK 16,2007-03-13,127
ABC,QS,ABC-01-049,113,ERYTHSS,Erythema Severity Score,PSI,PLAQUE 1,3,3,3,Y,,1,DAY 1,2006-11-07,1
ABC,QS,ABC-01-049,114,ERYTHSS,Erythema Severity Score,PSI,PLAQUE 1,2,2,2,,,2,WEEK 2,2006-11-21,15
ABC,QS,ABC-01-049,115,ERYTHSS,Erythema Severity Score,PSI,PLAQUE 1,3,3,3,,,4,WEEK 4,2006-12-07,31
ABC,QS,ABC-01-049,116,ERYTHSS,Erythema Severity Score,PSI,PLAQUE 1,2,2,2,,,6,WEEK 6,2006-12-28,52
ABC,QS,ABC-01-049,117,ERYTHSS,Erythema Severity Score,PSI,PLAQUE 1,2,2,2,,,8,WEEK 8,2007-01-11,66
ABC,QS,ABC-01-049,118,ERYTHSS,Erythema Severity Score,PSI,PLAQUE 1,2,2,2,,,12,WEEK 12,2007-02-09,95
ABC,QS,ABC-01-049,119,ERYTHSS,Erythema Severity Score,PSI,PLAQUE 1,3,3,3,,,16,WEEK 16,2007-03-13,127
ABC,QS,ABC-01-049,120,INDURSS,Induration Severity Score,PSI,PLAQUE 1,2,2,2,Y,,1,DAY 1,2006-11-07,1
ABC,QS,ABC-01-049,121,INDURSS,Induration Severity Score,PSI,PLAQUE 1,0,0,0,,,2,WEEK 2,2006-11-21,15
ABC,QS,ABC-01-049,122,INDURSS,Induration Severity Score,PSI,PLAQUE 1,3,3,3,,,4,WEEK 4,2006-12-07,31
ABC,QS,ABC-01-049,123,INDURSS,Induration Severity Score,PSI,PLAQUE 1,2,2,2,,,6,WEEK 6,2006-12-28,52
ABC,QS,ABC-01-049,124,INDURSS,Induration Severity Score,PSI,PLAQUE 1,2,2,2,,,8,WEEK 8,2007-01-11,66
ABC,QS,ABC-01-049,125,INDURSS,Induration Severity Score,PSI,PLAQUE 1,2,2,2,,,12,WEEK 12,2007-02-09,95
ABC,QS,ABC-01-049,126,INDURSS,Induration Severity Score,PSI,PLAQUE 1,2,2,2,,,16,WEEK 16,2007-03-13,127
ABC,QS,ABC-01-049,127,SCALSS,Scaling Severity Score,PSI,PLAQUE 1,3,3,3,Y,,1,DAY 1,2006-11-07,1
ABC,QS,ABC-01-049,128,SCALSS,Scaling Severity Score,PSI,PLAQUE 1,1,1,1,,,2,WEEK 2,2006-11-21,15
ABC,QS,ABC-01-049,129,SCALSS,Scaling Severity Score,PSI,PLAQUE 1,3,3,3,,,4,WEEK 4,2006-12-07,31
ABC,QS,ABC-01-049,130,SCALSS,Scaling Severity Score,PSI,PLAQUE 1,3,3,3,,,6,WEEK 6,2006-12-28,52
ABC,QS,ABC-01-049,131,SCALSS,Scaling Severity Score,PSI,PLAQUE 1,2,2,2,,,8,WEEK 8,2007-01-11,66
ABC,QS,ABC-01-049,132,SCALSS,Scaling Severity Score,PSI,PLAQUE 1,3,3,3,,,12,WEEK 12,2007-02-09,95
ABC,QS,ABC-01-049,133,SCALSS,Scaling Severity Score,PSI,PLAQUE 1,3,3,3,,,16,WEEK 16,2007-03-13,127
ABC,QS,ABC-01-049,134,BODYAC,Body Area Code,PSI,PLAQUE 2,28,28,28,Y,,1,DAY 1,2006-11-07,1
ABC,QS,ABC-01-049,135,BODYAC,Body Area Code,PSI,PLAQUE 2,28,28,28,,,2,WEEK 2,2006-11-21,15
ABC,QS,ABC-01-049,136,BODYAC,Body Area Code,PSI,PLAQUE 2,28,28,28,,,4,WEEK 4,2006-12-07,31
ABC,QS,ABC-01-049,137,BODYAC,Body Area Code,PSI,PLAQUE 2,28,28,28,,,6,WEEK 6,2006-12-28,52
ABC,QS,ABC-01-049,138,BODYAC,Body Area Code,PSI,PLAQUE 2,28,28,28,,,8,WEEK 8,2007-01-11,66
ABC,QS,ABC-01-049,139,BODYAC,Body Area Code,PSI,PLAQUE 2,28,28,28,,,12,WEEK 12,2007-02-09,95
ABC,QS,ABC-01-049,140,BODYAC,Body Area Code,PSI,PLAQUE 2,28,28,28,,,16,WEEK 16,2007-03-13,127
ABC,QS,ABC-01-049,141,CPSS,CPSS,PSI,PLAQUE 2,9,9,9,Y,Y,1,DAY 1,2006-11-07,1
ABC,QS,ABC-01-049,142,CPSS,CPSS,PSI,PLAQUE 2,3,3,3,,Y,2,WEEK 2,2006-11-21,15
ABC,QS,ABC-01-049,143,CPSS,CPSS,PSI,PLAQUE 2,9,9,9,,Y,4,WEEK 4,2006-12-07,31
ABC,QS,ABC-01-049,144,CPSS,CPSS,PSI,PLAQUE 2,7,7,7,,Y,6,WEEK 6,2006-12-28,52
ABC,QS,ABC-01-049,145,CPSS,CPSS,PSI,PLAQUE 2,6,6,6,,Y,8,WEEK 8,2007-01-11,66
ABC,QS,ABC-01-049,146,CPSS,CPSS,PSI,PLAQUE 2,7,7,7,,Y,12,WEEK 12,2007-02-09,95
ABC,QS,ABC-01-049,147,CPSS,CPSS,PSI,PLAQUE 2,8,8,8,,Y,16,WEEK 16,2007-03-13,127
ABC,QS,ABC-01-049,148,ERYTHSS,Erythema Severity Score,PSI,PLAQUE 2,3,3,3,Y,,1,DAY 1,2006-11-07,1
ABC,QS,ABC-01-049,149,ERYTHSS,Erythema Severity Score,PSI,PLAQUE 2,2,2,2,,,2,WEEK 2,2006-11-21,15
ABC,QS,ABC-01-049,150,ERYTHSS,Erythema Severity Score,PSI,PLAQUE 2,3,3,3,,,4,WEEK 4,2006-12-07,31
ABC,QS,ABC-01-049,151,ERYTHSS,Erythema Severity Score,PSI,PLAQUE 2,2,2,2,,,6,WEEK 6,2006-12-28,52
ABC,QS,ABC-01-049,152,ERYTHSS,Erythema Severity Score,PSI,PLAQUE 2,2,2,2,,,8,WEEK 8,2007-01-11,66
ABC,QS,ABC-01-049,153,ERYTHSS,Erythema Severity Score,PSI,PLAQUE 2,2,2,2,,,12,WEEK 12,2007-02-09,95
ABC,QS,ABC-01-049,154,ERYTHSS,Erythema Severity Score,PSI,PLAQUE 2,3,3,3,,,16,WEEK 16,2007-03-13,127
ABC,QS,ABC-01-049,155,INDURSS,Induration Severity Score,PSI,PLAQUE 2,3,3,3,Y,,1,DAY 1,2006-11-07,1
ABC,QS,ABC-01-049,156,INDURSS,Induration Severity Score,PSI,PLAQUE 2,0,0,0,,,2,WEEK 2,2006-11-21,15
ABC,QS,ABC-01-049,157,INDURSS,Induration Severity Score,PSI,PLAQUE 2,3,3,3,,,4,WEEK 4,2006-12-07,31
ABC,QS,ABC-01-049,158,INDURSS,Induration Severity Score,PSI,PLAQUE 2,2,2,2,,,6,WEEK 6,2006-12-28,52
ABC,QS,ABC-01-049,159,INDURSS,Induration Severity Score,PSI,PLAQUE 2,2,2,2,,,8,WEEK 8,2007-01-11,66
ABC,QS,ABC-01-049,160,INDURSS,Induration Severity Score,PSI,PLAQUE 2,2,2,2,,,12,WEEK 12,2007-02-09,95
ABC,QS,ABC-01-049,161,INDURSS,Induration Severity Score,PSI,PLAQUE 2,2,2,2,,,16,WEEK 16,2007-03-13,127
ABC,QS,ABC-01-049,162,SCALSS,Scaling Severity Score,PSI,PLAQUE 2,3,3,3,Y,,1,DAY 1,2006-11-07,1
ABC,QS,ABC-01-049,163,SCALSS,Scaling Severity Score,PSI,PLAQUE 2,1,1,1,,,2,WEEK 2,2006-11-21,15
ABC,QS,ABC-01-049,164,SCALSS,Scaling Severity Score,PSI,PLAQUE 2,3,3,3,,,4,WEEK 4,2006-12-07,31
ABC,QS,ABC-01-049,165,SCALSS,Scaling Severity Score,PSI,PLAQUE 2,3,3,3,,,6,WEEK 6,2006-12-28,52
ABC,QS,ABC-01-049,166,SCALSS,Scaling Severity Score,PSI,PLAQUE 2,2,2,2,,,8,WEEK 8,2007-01-11,66
ABC,QS,ABC-01-049,167,SCALSS,Scaling Severity Score,PSI,PLAQUE 2,3,3,3,,,12,WEEK 12,2007-02-09,95
ABC,QS,ABC-01-049,168,SCALSS,Scaling Severity Score,PSI,PLAQUE 2,3,3,3,,,16,WEEK 16,2007-03-13,127
ABC,QS,ABC-01-050,1,AREASCOR,Area Score (0-6),AAPASI,LOWER EXTREMITIES,2,2,2,Y,,1,DAY 1,2006-11-02,1
ABC,QS,ABC-01-050,2,AREASCOR,Area Score (0-6),AAPASI,LOWER EXTREMITIES,2,2,2,,,2,WEEK 2,2006-11-16,15
ABC,QS,ABC-01-050,3,AREASCOR,Area Score (0-6),AAPASI,LOWER EXTREMITIES,2,2,2,,,4,WEEK 4,2006-11-30,29
ABC,QS,ABC-01-050,4,AREASCOR,Area Score (0-6),AAPASI,LOWER EXTREMITIES,2,2,2,,,6,WEEK 6,2006-12-14,43
ABC,QS,ABC-01-050,5,AREASCOR,Area Score (0-6),AAPASI,LOWER EXTREMITIES,2,2,2,,,8,WEEK 8,2006-12-28,57
ABC,QS,ABC-01-050,6,AREASCOR,Area Score (0-6),AAPASI,LOWER EXTREMITIES,2,2,2,,,12,WEEK 12,2007-01-30,90
ABC,QS,ABC-01-050,7,AREASCOR,Area Score (0-6),AAPASI,LOWER EXTREMITIES,3,3,3,,,16,WEEK 16,2007-03-08,127
ABC,QS,ABC-01-050,8,ERYTHEMA,Erythema (0-4),AAPASI,LOWER EXTREMITIES,3,3,3,Y,,1,DAY 1,2006-11-02,1
ABC,QS,ABC-01-050,9,ERYTHEMA,Erythema (0-4),AAPASI,LOWER EXTREMITIES,3,3,3,,,2,WEEK 2,2006-11-16,15
ABC,QS,ABC-01-050,10,ERYTHEMA,Erythema (0-4),AAPASI,LOWER EXTREMITIES,2,2,2,,,4,WEEK 4,2006-11-30,29
ABC,QS,ABC-01-050,11,ERYTHEMA,Erythema (0-4),AAPASI,LOWER EXTREMITIES,2,2,2,,,6,WEEK 6,2006-12-14,43
ABC,QS,ABC-01-050,12,ERYTHEMA,Erythema (0-4),AAPASI,LOWER EXTREMITIES,3,3,3,,,8,WEEK 8,2006-12-28,57
ABC,QS,ABC-01-050,13,ERYTHEMA,Erythema (0-4),AAPASI,LOWER EXTREMITIES,3,3,3,,,12,WEEK 12,2007-01-30,90
ABC,QS,ABC-01-050,14,ERYTHEMA,Erythema (0-4),AAPASI,LOWER EXTREMITIES,3,3,3,,,16,WEEK 16,2007-03-08,127
ABC,QS,ABC-01-050,15,SCALE,Scale (0-4),AAPASI,LOWER EXTREMITIES,3,3,3,Y,,1,DAY 1,2006-11-02,1
ABC,QS,ABC-01-050,16,SCALE,Scale (0-4),AAPASI,LOWER EXTREMITIES,2,2,2,,,2,WEEK 2,2006-11-16,15
ABC,QS,ABC-01-050,17,SCALE,Scale (0-4),AAPASI,LOWER EXTREMITIES,3,3,3,,,4,WEEK 4,2006-11-30,29
ABC,QS,ABC-01-050,18,SCALE,Scale (0-4),AAPASI,LOWER EXTREMITIES,1,1,1,,,6,WEEK 6,2006-12-14,43
ABC,QS,ABC-01-050,19,SCALE,Scale (0-4),AAPASI,LOWER EXTREMITIES,2,2,2,,,8,WEEK 8,2006-12-28,57
ABC,QS,ABC-01-050,20,SCALE,Scale (0-4),AAPASI,LOWER EXTREMITIES,3,3,3,,,12,WEEK 12,2007-01-30,90
ABC,QS,ABC-01-050,21,SCALE,Scale (0-4),AAPASI,LOWER EXTREMITIES,3,3,3,,,16,WEEK 16,2007-03-08,127
ABC,QS,ABC-01-050,22,THCKNESS,Induration (0-4),AAPASI,LOWER EXTREMITIES,3,3,3,Y,,1,DAY 1,2006-11-02,1
ABC,QS,ABC-01-050,23,THCKNESS,Induration (0-4),AAPASI,LOWER EXTREMITIES,2,2,2,,,2,WEEK 2,2006-11-16,15
ABC,QS,ABC-01-050,24,THCKNESS,Induration (0-4),AAPASI,LOWER EXTREMITIES,3,3,3,,,4,WEEK 4,2006-11-30,29
ABC,QS,ABC-01-050,25,THCKNESS,Induration (0-4),AAPASI,LOWER EXTREMITIES,2,2,2,,,6,WEEK 6,2006-12-14,43
ABC,QS,ABC-01-050,26,THCKNESS,Induration (0-4),AAPASI,LOWER EXTREMITIES,2,2,2,,,8,WEEK 8,2006-12-28,57
ABC,QS,ABC-01-050,27,THCKNESS,Induration (0-4),AAPASI,LOWER EXTREMITIES,3,3,3,,,12,WEEK 12,2007-01-30,90
ABC,QS,ABC-01-050,28,THCKNESS,Induration (0-4),AAPASI,LOWER EXTREMITIES,3,3,3,,,16,WEEK 16,2007-03-08,127
ABC,QS,ABC-01-050,29,AREASCOR,Area Score (0-6),AAPASI,TRUNK,1,1,1,Y,,1,DAY 1,2006-11-02,1
ABC,QS,ABC-01-050,30,AREASCOR,Area Score (0-6),AAPASI,TRUNK,1,1,1,,,2,WEEK 2,2006-11-16,15
ABC,QS,ABC-01-050,31,AREASCOR,Area Score (0-6),AAPASI,TRUNK,1,1,1,,,4,WEEK 4,2006-11-30,29
ABC,QS,ABC-01-050,32,AREASCOR,Area Score (0-6),AAPASI,TRUNK,1,1,1,,,6,WEEK 6,2006-12-14,43
ABC,QS,ABC-01-050,33,AREASCOR,Area Score (0-6),AAPASI,TRUNK,0,0,0,,,8,WEEK 8,2006-12-28,57
ABC,QS,ABC-01-050,34,AREASCOR,Area Score (0-6),AAPASI,TRUNK,0,0,0,,,12,WEEK 12,2007-01-30,90
ABC,QS,ABC-01-050,35,AREASCOR,Area Score (0-6),AAPASI,TRUNK,0,0,0,,,16,WEEK 16,2007-03-08,127
ABC,QS,ABC-01-050,36,ERYTHEMA,Erythema (0-4),AAPASI,TRUNK,2,2,2,Y,,1,DAY 1,2006-11-02,1
ABC,QS,ABC-01-050,37,ERYTHEMA,Erythema (0-4),AAPASI,TRUNK,1,1,1,,,2,WEEK 2,2006-11-16,15
ABC,QS,ABC-01-050,38,ERYTHEMA,Erythema (0-4),AAPASI,TRUNK,1,1,1,,,4,WEEK 4,2006-11-30,29
ABC,QS,ABC-01-050,39,ERYTHEMA,Erythema (0-4),AAPASI,TRUNK,2,2,2,,,6,WEEK 6,2006-12-14,43
ABC,QS,ABC-01-050,40,ERYTHEMA,Erythema (0-4),AAPASI,TRUNK,0,0,0,,,8,WEEK 8,2006-12-28,57
ABC,QS,ABC-01-050,41,ERYTHEMA,Erythema (0-4),AAPASI,TRUNK,0,0,0,,,12,WEEK 12,2007-01-30,90
ABC,QS,ABC-01-050,42,ERYTHEMA,Erythema (0-4),AAPASI,TRUNK,0,0,0,,,16,WEEK 16,2007-03-08,127
ABC,QS,ABC-01-050,43,SCALE,Scale (0-4),AAPASI,TRUNK,1,1,1,Y,,1,DAY 1,2006-11-02,1
ABC,QS,ABC-01-050,44,SCALE,Scale (0-4),AAPASI,TRUNK,1,1,1,,,2,WEEK 2,2006-11-16,15
ABC,QS,ABC-01-050,45,SCALE,Scale (0-4),AAPASI,TRUNK,3,3,3,,,4,WEEK 4,2006-11-30,29
ABC,QS,ABC-01-050,46,SCALE,Scale (0-4),AAPASI,TRUNK,1,1,1,,,6,WEEK 6,2006-12-14,43
ABC,QS,ABC-01-050,47,SCALE,Scale (0-4),AAPASI,TRUNK,0,0,0,,,8,WEEK 8,2006-12-28,57
ABC,QS,ABC-01-050,48,SCALE,Scale (0-4),AAPASI,TRUNK,0,0,0,,,12,WEEK 12,2007-01-30,90
ABC,QS,ABC-01-050,49,SCALE,Scale (0-4),AAPASI,TRUNK,0,0,0,,,16,WEEK 16,2007-03-08,127
ABC,QS,ABC-01-050,50,THCKNESS,Induration (0-4),AAPASI,TRUNK,2,2,2,Y,,1,DAY 1,2006-11-02,1
ABC,QS,ABC-01-050,51,THCKNESS,Induration (0-4),AAPASI,TRUNK,1,1,1,,,2,WEEK 2,2006-11-16,15
ABC,QS,ABC-01-050,52,THCKNESS,Induration (0-4),AAPASI,TRUNK,3,3,3,,,4,WEEK 4,2006-11-30,29
ABC,QS,ABC-01-050,53,THCKNESS,Induration (0-4),AAPASI,TRUNK,2,2,2,,,6,WEEK 6,2006-12-14,43
ABC,QS,ABC-01-050,54,THCKNESS,Induration (0-4),AAPASI,TRUNK,0,0,0,,,8,WEEK 8,2006-12-28,57
ABC,QS,ABC-01-050,55,THCKNESS,Induration (0-4),AAPASI,TRUNK,0,0,0,,,12,WEEK 12,2007-01-30,90
ABC,QS,ABC-01-050,56,THCKNESS,Induration (0-4),AAPASI,TRUNK,0,0,0,,,16,WEEK 16,2007-03-08,127
ABC,QS,ABC-01-050,57,AREASCOR,Area Score (0-6),AAPASI,UPPER EXTREMITIES,1,1,1,Y,,1,DAY 1,2006-11-02,1
ABC,QS,ABC-01-050,58,AREASCOR,Area Score (0-6),AAPASI,UPPER EXTREMITIES,1,1,1,,,2,WEEK 2,2006-11-16,15
ABC,QS,ABC-01-050,59,AREASCOR,Area Score (0-6),AAPASI,UPPER EXTREMITIES,1,1,1,,,4,WEEK 4,2006-11-30,29
ABC,QS,ABC-01-050,60,AREASCOR,Area Score (0-6),AAPASI,UPPER EXTREMITIES,1,1,1,,,6,WEEK 6,2006-12-14,43
ABC,QS,ABC-01-050,61,AREASCOR,Area Score (0-6),AAPASI,UPPER EXTREMITIES,1,1,1,,,8,WEEK 8,2006-12-28,57
ABC,QS,ABC-01-050,62,AREASCOR,Area Score (0-6),AAPASI,UPPER EXTREMITIES,1,1,1,,,12,WEEK 12,2007-01-30,90
ABC,QS,ABC-01-050,63,AREASCOR,Area Score (0-6),AAPASI,UPPER EXTREMITIES,2,2,2,,,16,WEEK 16,2007-03-08,127
ABC,QS,ABC-01-050,64,ERYTHEMA,Erythema (0-4),AAPASI,UPPER EXTREMITIES,3,3,3,Y,,1,DAY 1,2006-11-02,1
ABC,QS,ABC-01-050,65,ERYTHEMA,Erythema (0-4),AAPASI,UPPER EXTREMITIES,2,2,2,,,2,WEEK 2,2006-11-16,15
ABC,QS,ABC-01-050,66,ERYTHEMA,Erythema (0-4),AAPASI,UPPER EXTREMITIES,2,2,2,,,4,WEEK 4,2006-11-30,29
ABC,QS,ABC-01-050,67,ERYTHEMA,Erythema (0-4),AAPASI,UPPER EXTREMITIES,2,2,2,,,6,WEEK 6,2006-12-14,43
ABC,QS,ABC-01-050,68,ERYTHEMA,Erythema (0-4),AAPASI,UPPER EXTREMITIES,3,3,3,,,8,WEEK 8,2006-12-28,57
ABC,QS,ABC-01-050,69,ERYTHEMA,Erythema (0-4),AAPASI,UPPER EXTREMITIES,3,3,3,,,12,WEEK 12,2007-01-30,90
ABC,QS,ABC-01-050,70,ERYTHEMA,Erythema (0-4),AAPASI,UPPER EXTREMITIES,3,3,3,,,16,WEEK 16,2007-03-08,127
ABC,QS,ABC-01-050,71,SCALE,Scale (0-4),AAPASI,UPPER EXTREMITIES,3,3,3,Y,,1,DAY 1,2006-11-02,1
ABC,QS,ABC-01-050,72,SCALE,Scale (0-4),AAPASI,UPPER EXTREMITIES,1,1,1,,,2,WEEK 2,2006-11-16,15
ABC,QS,ABC-01-050,73,SCALE,Scale (0-4),AAPASI,UPPER EXTREMITIES,3,3,3,,,4,WEEK 4,2006-11-30,29
ABC,QS,ABC-01-050,74,SCALE,Scale (0-4),AAPASI,UPPER EXTREMITIES,1,1,1,,,6,WEEK 6,2006-12-14,43
ABC,QS,ABC-01-050,75,SCALE,Scale (0-4),AAPASI,UPPER EXTREMITIES,2,2,2,,,8,WEEK 8,2006-12-28,57
ABC,QS,ABC-01-050,76,SCALE,Scale (0-4),AAPASI,UPPER EXTREMITIES,3,3,3,,,12,WEEK 12,2007-01-30,90
ABC,QS,ABC-01-050,77,SCALE,Scale (0-4),AAPASI,UPPER EXTREMITIES,3,3,3,,,16,WEEK 16,2007-03-08,127
ABC,QS,ABC-01-050,78,THCKNESS,Induration (0-4),AAPASI,UPPER EXTREMITIES,3,3,3,Y,,1,DAY 1,2006-11-02,1
ABC,QS,ABC-01-050,79,THCKNESS,Induration (0-4),AAPASI,UPPER EXTREMITIES,2,2,2,,,2,WEEK 2,2006-11-16,15
ABC,QS,ABC-01-050,80,THCKNESS,Induration (0-4),AAPASI,UPPER EXTREMITIES,3,3,3,,,4,WEEK 4,2006-11-30,29
ABC,QS,ABC-01-050,81,THCKNESS,Induration (0-4),AAPASI,UPPER EXTREMITIES,2,2,2,,,6,WEEK 6,2006-12-14,43
ABC,QS,ABC-01-050,82,THCKNESS,Induration (0-4),AAPASI,UPPER EXTREMITIES,2,2,2,,,8,WEEK 8,2006-12-28,57
ABC,QS,ABC-01-050,83,THCKNESS,Induration (0-4),AAPASI,UPPER EXTREMITIES,3,3,3,,,12,WEEK 12,2007-01-30,90
ABC,QS,ABC-01-050,84,THCKNESS,Induration (0-4),AAPASI,UPPER EXTREMITIES,3,3,3,,,16,WEEK 16,2007-03-08,127
ABC,QS,ABC-01-050,85,PRURPS,Pruritus Point Scale,PRURITUS ASSESSMENT,,2,2,2,Y,,1,DAY 1,2006-11-02,1
ABC,QS,ABC-01-050,86,PRURPS,Pruritus Point Scale,PRURITUS ASSESSMENT,,0,0,0,,,2,WEEK 2,2006-11-16,15
ABC,QS,ABC-01-050,87,PRURPS,Pruritus Point Scale,PRURITUS ASSESSMENT,,0,0,0,,,4,WEEK 4,2006-11-30,29
ABC,QS,ABC-01-050,88,PRURPS,Pruritus Point Scale,PRURITUS ASSESSMENT,,2,2,2,,,6,WEEK 6,2006-12-14,43
ABC,QS,ABC-01-050,89,PRURPS,Pruritus Point Scale,PRURITUS ASSESSMENT,,1,1,1,,,8,WEEK 8,2006-12-28,57
ABC,QS,ABC-01-050,90,PRURPS,Pruritus Point Scale,PRURITUS ASSESSMENT,,1,1,1,,,12,WEEK 12,2007-01-30,90
ABC,QS,ABC-01-050,91,PRURPS,Pruritus Point Scale,PRURITUS ASSESSMENT,,3,3,3,,,16,WEEK 16,2007-03-08,127
ABC,QS,ABC-01-050,92,PSGA,PSGA Score,PSGA,,3,3,3,Y,,1,DAY 1,2006-11-02,1
ABC,QS,ABC-01-050,93,PSGA,PSGA Score,PSGA,,3,3,3,,,2,WEEK 2,2006-11-16,15
ABC,QS,ABC-01-050,94,PSGA,PSGA Score,PSGA,,3,3,3,,,4,WEEK 4,2006-11-30,29
ABC,QS,ABC-01-050,95,PSGA,PSGA Score,PSGA,,2,2,2,,,6,WEEK 6,2006-12-14,43
ABC,QS,ABC-01-050,96,PSGA,PSGA Score,PSGA,,2,2,2,,,8,WEEK 8,2006-12-28,57
ABC,QS,ABC-01-050,97,PSGA,PSGA Score,PSGA,,3,3,3,,,12,WEEK 12,2007-01-30,90
ABC,QS,ABC-01-050,98,PSGA,PSGA Score,PSGA,,3,3,3,,,16,WEEK 16,2007-03-08,127
ABC,QS,ABC-01-050,99,BODYAC,Body Area Code,PSI,PLAQUE 1,11,11,11,Y,,1,DAY 1,2006-11-02,1
ABC,QS,ABC-01-050,100,BODYAC,Body Area Code,PSI,PLAQUE 1,11,11,11,,,2,WEEK 2,2006-11-16,15
ABC,QS,ABC-01-050,101,BODYAC,Body Area Code,PSI,PLAQUE 1,11,11,11,,,4,WEEK 4,2006-11-30,29
ABC,QS,ABC-01-050,102,BODYAC,Body Area Code,PSI,PLAQUE 1,11,11,11,,,6,WEEK 6,2006-12-14,43
ABC,QS,ABC-01-050,103,BODYAC,Body Area Code,PSI,PLAQUE 1,11,11,11,,,8,WEEK 8,2006-12-28,57
ABC,QS,ABC-01-050,104,BODYAC,Body Area Code,PSI,PLAQUE 1,11,11,11,,,12,WEEK 12,2007-01-30,90
ABC,QS,ABC-01-050,105,BODYAC,Body Area Code,PSI,PLAQUE 1,11,11,11,,,16,WEEK 16,2007-03-08,127
ABC,QS,ABC-01-050,106,CPSS,CPSS,PSI,PLAQUE 1,9,9,9,Y,Y,1,DAY 1,2006-11-02,1
ABC,QS,ABC-01-050,107,CPSS,CPSS,PSI,PLAQUE 1,6,6,6,,Y,2,WEEK 2,2006-11-16,15
ABC,QS,ABC-01-050,108,CPSS,CPSS,PSI,PLAQUE 1,8,8,8,,Y,4,WEEK 4,2006-11-30,29
ABC,QS,ABC-01-050,109,CPSS,CPSS,PSI,PLAQUE 1,5,5,5,,Y,6,WEEK 6,2006-12-14,43
ABC,QS,ABC-01-050,110,CPSS,CPSS,PSI,PLAQUE 1,7,7,7,,Y,8,WEEK 8,2006-12-28,57
ABC,QS,ABC-01-050,111,CPSS,CPSS,PSI,PLAQUE 1,8,8,8,,Y,12,WEEK 12,2007-01-30,90
ABC,QS,ABC-01-050,112,CPSS,CPSS,PSI,PLAQUE 1,8,8,8,,Y,16,WEEK 16,2007-03-08,127
ABC,QS,ABC-01-050,113,ERYTHSS,Erythema Severity Score,PSI,PLAQUE 1,3,3,3,Y,,1,DAY 1,2006-11-02,1
ABC,QS,ABC-01-050,114,ERYTHSS,Erythema Severity Score,PSI,PLAQUE 1,3,3,3,,,2,WEEK 2,2006-11-16,15
ABC,QS,ABC-01-050,115,ERYTHSS,Erythema Severity Score,PSI,PLAQUE 1,3,3,3,,,4,WEEK 4,2006-11-30,29
ABC,QS,ABC-01-050,116,ERYTHSS,Erythema Severity Score,PSI,PLAQUE 1,2,2,2,,,6,WEEK 6,2006-12-14,43
ABC,QS,ABC-01-050,117,ERYTHSS,Erythema Severity Score,PSI,PLAQUE 1,3,3,3,,,8,WEEK 8,2006-12-28,57
ABC,QS,ABC-01-050,118,ERYTHSS,Erythema Severity Score,PSI,PLAQUE 1,3,3,3,,,12,WEEK 12,2007-01-30,90
ABC,QS,ABC-01-050,119,ERYTHSS,Erythema Severity Score,PSI,PLAQUE 1,3,3,3,,,16,WEEK 16,2007-03-08,127
ABC,QS,ABC-01-050,120,INDURSS,Induration Severity Score,PSI,PLAQUE 1,3,3,3,Y,,1,DAY 1,2006-11-02,1
ABC,QS,ABC-01-050,121,INDURSS,Induration Severity Score,PSI,PLAQUE 1,2,2,2,,,2,WEEK 2,2006-11-16,15
ABC,QS,ABC-01-050,122,INDURSS,Induration Severity Score,PSI,PLAQUE 1,3,3,3,,,4,WEEK 4,2006-11-30,29
ABC,QS,ABC-01-050,123,INDURSS,Induration Severity Score,PSI,PLAQUE 1,2,2,2,,,6,WEEK 6,2006-12-14,43
ABC,QS,ABC-01-050,124,INDURSS,Induration Severity Score,PSI,PLAQUE 1,2,2,2,,,8,WEEK 8,2006-12-28,57
ABC,QS,ABC-01-050,125,INDURSS,Induration Severity Score,PSI,PLAQUE 1,2,2,2,,,12,WEEK 12,2007-01-30,90
ABC,QS,ABC-01-050,126,INDURSS,Induration Severity Score,PSI,PLAQUE 1,2,2,2,,,16,WEEK 16,2007-03-08,127
ABC,QS,ABC-01-050,127,SCALSS,Scaling Severity Score,PSI,PLAQUE 1,3,3,3,Y,,1,DAY 1,2006-11-02,1
ABC,QS,ABC-01-050,128,SCALSS,Scaling Severity Score,PSI,PLAQUE 1,1,1,1,,,2,WEEK 2,2006-11-16,15
ABC,QS,ABC-01-050,129,SCALSS,Scaling Severity Score,PSI,PLAQUE 1,2,2,2,,,4,WEEK 4,2006-11-30,29
ABC,QS,ABC-01-050,130,SCALSS,Scaling Severity Score,PSI,PLAQUE 1,1,1,1,,,6,WEEK 6,2006-12-14,43
ABC,QS,ABC-01-050,131,SCALSS,Scaling Severity Score,PSI,PLAQUE 1,2,2,2,,,8,WEEK 8,2006-12-28,57
ABC,QS,ABC-01-050,132,SCALSS,Scaling Severity Score,PSI,PLAQUE 1,3,3,3,,,12,WEEK 12,2007-01-30,90
ABC,QS,ABC-01-050,133,SCALSS,Scaling Severity Score,PSI,PLAQUE 1,3,3,3,,,16,WEEK 16,2007-03-08,127
ABC,QS,ABC-01-050,134,BODYAC,Body Area Code,PSI,PLAQUE 2,10,10,10,Y,,1,DAY 1,2006-11-02,1
ABC,QS,ABC-01-050,135,BODYAC,Body Area Code,PSI,PLAQUE 2,10,10,10,,,2,WEEK 2,2006-11-16,15
ABC,QS,ABC-01-050,136,BODYAC,Body Area Code,PSI,PLAQUE 2,10,10,10,,,4,WEEK 4,2006-11-30,29
ABC,QS,ABC-01-050,137,BODYAC,Body Area Code,PSI,PLAQUE 2,10,10,10,,,6,WEEK 6,2006-12-14,43
ABC,QS,ABC-01-050,138,BODYAC,Body Area Code,PSI,PLAQUE 2,10,10,10,,,8,WEEK 8,2006-12-28,57
ABC,QS,ABC-01-050,139,BODYAC,Body Area Code,PSI,PLAQUE 2,10,10,10,,,12,WEEK 12,2007-01-30,90
ABC,QS,ABC-01-050,140,BODYAC,Body Area Code,PSI,PLAQUE 2,10,10,10,,,16,WEEK 16,2007-03-08,127
ABC,QS,ABC-01-050,141,CPSS,CPSS,PSI,PLAQUE 2,7,7,7,Y,Y,1,DAY 1,2006-11-02,1
ABC,QS,ABC-01-050,142,CPSS,CPSS,PSI,PLAQUE 2,8,8,8,,Y,2,WEEK 2,2006-11-16,15
ABC,QS,ABC-01-050,143,CPSS,CPSS,PSI,PLAQUE 2,8,8,8,,Y,4,WEEK 4,2006-11-30,29
ABC,QS,ABC-01-050,144,CPSS,CPSS,PSI,PLAQUE 2,5,5,5,,Y,6,WEEK 6,2006-12-14,43
ABC,QS,ABC-01-050,145,CPSS,CPSS,PSI,PLAQUE 2,7,7,7,,Y,8,WEEK 8,2006-12-28,57
ABC,QS,ABC-01-050,146,CPSS,CPSS,PSI,PLAQUE 2,8,8,8,,Y,12,WEEK 12,2007-01-30,90
ABC,QS,ABC-01-050,147,CPSS,CPSS,PSI,PLAQUE 2,8,8,8,,Y,16,WEEK 16,2007-03-08,127
ABC,QS,ABC-01-050,148,ERYTHSS,Erythema Severity Score,PSI,PLAQUE 2,3,3,3,Y,,1,DAY 1,2006-11-02,1
ABC,QS,ABC-01-050,149,ERYTHSS,Erythema Severity Score,PSI,PLAQUE 2,3,3,3,,,2,WEEK 2,2006-11-16,15
ABC,QS,ABC-01-050,150,ERYTHSS,Erythema Severity Score,PSI,PLAQUE 2,3,3,3,,,4,WEEK 4,2006-11-30,29
ABC,QS,ABC-01-050,151,ERYTHSS,Erythema Severity Score,PSI,PLAQUE 2,2,2,2,,,6,WEEK 6,2006-12-14,43
ABC,QS,ABC-01-050,152,ERYTHSS,Erythema Severity Score,PSI,PLAQUE 2,3,3,3,,,8,WEEK 8,2006-12-28,57
ABC,QS,ABC-01-050,153,ERYTHSS,Erythema Severity Score,PSI,PLAQUE 2,3,3,3,,,12,WEEK 12,2007-01-30,90
ABC,QS,ABC-01-050,154,ERYTHSS,Erythema Severity Score,PSI,PLAQUE 2,3,3,3,,,16,WEEK 16,2007-03-08,127
ABC,QS,ABC-01-050,155,INDURSS,Induration Severity Score,PSI,PLAQUE 2,2,2,2,Y,,1,DAY 1,2006-11-02,1
ABC,QS,ABC-01-050,156,INDURSS,Induration Severity Score,PSI,PLAQUE 2,3,3,3,,,2,WEEK 2,2006-11-16,15
ABC,QS,ABC-01-050,157,INDURSS,Induration Severity Score,PSI,PLAQUE 2,3,3,3,,,4,WEEK 4,2006-11-30,29
ABC,QS,ABC-01-050,158,INDURSS,Induration Severity Score,PSI,PLAQUE 2,2,2,2,,,6,WEEK 6,2006-12-14,43
ABC,QS,ABC-01-050,159,INDURSS,Induration Severity Score,PSI,PLAQUE 2,2,2,2,,,8,WEEK 8,2006-12-28,57
ABC,QS,ABC-01-050,160,INDURSS,Induration Severity Score,PSI,PLAQUE 2,2,2,2,,,12,WEEK 12,2007-01-30,90
ABC,QS,ABC-01-050,161,INDURSS,Induration Severity Score,PSI,PLAQUE 2,2,2,2,,,16,WEEK 16,2007-03-08,127
ABC,QS,ABC-01-050,162,SCALSS,Scaling Severity Score,PSI,PLAQUE 2,2,2,2,Y,,1,DAY 1,2006-11-02,1
ABC,QS,ABC-01-050,163,SCALSS,Scaling Severity Score,PSI,PLAQUE 2,2,2,2,,,2,WEEK 2,2006-11-16,15
ABC,QS,ABC-01-050,164,SCALSS,Scaling Severity Score,PSI,PLAQUE 2,2,2,2,,,4,WEEK 4,2006-11-30,29
ABC,QS,ABC-01-050,165,SCALSS,Scaling Severity Score,PSI,PLAQUE 2,1,1,1,,,6,WEEK 6,2006-12-14,43
ABC,QS,ABC-01-050,166,SCALSS,Scaling Severity Score,PSI,PLAQUE 2,2,2,2,,,8,WEEK 8,2006-12-28,57
ABC,QS,ABC-01-050,167,SCALSS,Scaling Severity Score,PSI,PLAQUE 2,3,3,3,,,12,WEEK 12,2007-01-30,90
ABC,QS,ABC-01-050,168,SCALSS,Scaling Severity Score,PSI,PLAQUE 2,3,3,3,,,16,WEEK 16,2007-03-08,127
ABC,QS,ABC-01-051,1,AREASCOR,Area Score (0-6),AAPASI,LOWER EXTREMITIES,2,2,2,Y,,1,DAY 1,2006-11-02,1
ABC,QS,ABC-01-051,2,AREASCOR,Area Score (0-6),AAPASI,LOWER EXTREMITIES,2,2,2,,,2,WEEK 2,2006-11-16,15
ABC,QS,ABC-01-051,3,AREASCOR,Area Score (0-6),AAPASI,LOWER EXTREMITIES,2,2,2,,,4,WEEK 4,2006-11-30,29
ABC,QS,ABC-01-051,4,AREASCOR,Area Score (0-6),AAPASI,LOWER EXTREMITIES,1,1,1,,,6,WEEK 6,2006-12-14,43
ABC,QS,ABC-01-051,5,AREASCOR,Area Score (0-6),AAPASI,LOWER EXTREMITIES,2,2,2,,,8,WEEK 8,2006-12-28,57
ABC,QS,ABC-01-051,6,AREASCOR,Area Score (0-6),AAPASI,LOWER EXTREMITIES,2,2,2,,,12,WEEK 12,2007-01-30,90
ABC,QS,ABC-01-051,7,AREASCOR,Area Score (0-6),AAPASI,LOWER EXTREMITIES,3,3,3,,,16,WEEK 16,2007-03-08,127
ABC,QS,ABC-01-051,8,ERYTHEMA,Erythema (0-4),AAPASI,LOWER EXTREMITIES,2,2,2,Y,,1,DAY 1,2006-11-02,1
ABC,QS,ABC-01-051,9,ERYTHEMA,Erythema (0-4),AAPASI,LOWER EXTREMITIES,3,3,3,,,2,WEEK 2,2006-11-16,15
ABC,QS,ABC-01-051,10,ERYTHEMA,Erythema (0-4),AAPASI,LOWER EXTREMITIES,1,1,1,,,4,WEEK 4,2006-11-30,29
ABC,QS,ABC-01-051,11,ERYTHEMA,Erythema (0-4),AAPASI,LOWER EXTREMITIES,3,3,3,,,6,WEEK 6,2006-12-14,43
ABC,QS,ABC-01-051,12,ERYTHEMA,Erythema (0-4),AAPASI,LOWER EXTREMITIES,3,3,3,,,8,WEEK 8,2006-12-28,57
ABC,QS,ABC-01-051,13,ERYTHEMA,Erythema (0-4),AAPASI,LOWER EXTREMITIES,3,3,3,,,12,WEEK 12,2007-01-30,90
ABC,QS,ABC-01-051,14,ERYTHEMA,Erythema (0-4),AAPASI,LOWER EXTREMITIES,3,3,3,,,16,WEEK 16,2007-03-08,127
ABC,QS,ABC-01-051,15,SCALE,Scale (0-4),AAPASI,LOWER EXTREMITIES,3,3,3,Y,,1,DAY 1,2006-11-02,1
ABC,QS,ABC-01-051,16,SCALE,Scale (0-4),AAPASI,LOWER EXTREMITIES,3,3,3,,,2,WEEK 2,2006-11-16,15
ABC,QS,ABC-01-051,17,SCALE,Scale (0-4),AAPASI,LOWER EXTREMITIES,3,3,3,,,4,WEEK 4,2006-11-30,29
ABC,QS,ABC-01-051,18,SCALE,Scale (0-4),AAPASI,LOWER EXTREMITIES,2,2,2,,,6,WEEK 6,2006-12-14,43
ABC,QS,ABC-01-051,19,SCALE,Scale (0-4),AAPASI,LOWER EXTREMITIES,3,3,3,,,8,WEEK 8,2006-12-28,57
ABC,QS,ABC-01-051,20,SCALE,Scale (0-4),AAPASI,LOWER EXTREMITIES,3,3,3,,,12,WEEK 12,2007-01-30,90
ABC,QS,ABC-01-051,21,SCALE,Scale (0-4),AAPASI,LOWER EXTREMITIES,3,3,3,,,16,WEEK 16,2007-03-08,127
ABC,QS,ABC-01-051,22,THCKNESS,Induration (0-4),AAPASI,LOWER EXTREMITIES,3,3,3,Y,,1,DAY 1,2006-11-02,1
ABC,QS,ABC-01-051,23,THCKNESS,Induration (0-4),AAPASI,LOWER EXTREMITIES,3,3,3,,,2,WEEK 2,2006-11-16,15
ABC,QS,ABC-01-051,24,THCKNESS,Induration (0-4),AAPASI,LOWER EXTREMITIES,3,3,3,,,4,WEEK 4,2006-11-30,29
ABC,QS,ABC-01-051,25,THCKNESS,Induration (0-4),AAPASI,LOWER EXTREMITIES,2,2,2,,,6,WEEK 6,2006-12-14,43
ABC,QS,ABC-01-051,26,THCKNESS,Induration (0-4),AAPASI,LOWER EXTREMITIES,2,2,2,,,8,WEEK 8,2006-12-28,57
ABC,QS,ABC-01-051,27,THCKNESS,Induration (0-4),AAPASI,LOWER EXTREMITIES,3,3,3,,,12,WEEK 12,2007-01-30,90
ABC,QS,ABC-01-051,28,THCKNESS,Induration (0-4),AAPASI,LOWER EXTREMITIES,3,3,3,,,16,WEEK 16,2007-03-08,127
ABC,QS,ABC-01-051,29,AREASCOR,Area Score (0-6),AAPASI,TRUNK,1,1,1,Y,,1,DAY 1,2006-11-02,1
ABC,QS,ABC-01-051,30,AREASCOR,Area Score (0-6),AAPASI,TRUNK,1,1,1,,,2,WEEK 2,2006-11-16,15
ABC,QS,ABC-01-051,31,AREASCOR,Area Score (0-6),AAPASI,TRUNK,2,2,2,,,4,WEEK 4,2006-11-30,29
ABC,QS,ABC-01-051,32,AREASCOR,Area Score (0-6),AAPASI,TRUNK,1,1,1,,,6,WEEK 6,2006-12-14,43
ABC,QS,ABC-01-051,33,AREASCOR,Area Score (0-6),AAPASI,TRUNK,1,1,1,,,8,WEEK 8,2006-12-28,57
ABC,QS,ABC-01-051,34,AREASCOR,Area Score (0-6),AAPASI,TRUNK,1,1,1,,,12,WEEK 12,2007-01-30,90
ABC,QS,ABC-01-051,35,AREASCOR,Area Score (0-6),AAPASI,TRUNK,1,1,1,,,16,WEEK 16,2007-03-08,127
ABC,QS,ABC-01-051,36,ERYTHEMA,Erythema (0-4),AAPASI,TRUNK,3,3,3,Y,,1,DAY 1,2006-11-02,1
ABC,QS,ABC-01-051,37,ERYTHEMA,Erythema (0-4),AAPASI,TRUNK,3,3,3,,,2,WEEK 2,2006-11-16,15
ABC,QS,ABC-01-051,38,ERYTHEMA,Erythema (0-4),AAPASI,TRUNK,1,1,1,,,4,WEEK 4,2006-11-30,29
ABC,QS,ABC-01-051,39,ERYTHEMA,Erythema (0-4),AAPASI,TRUNK,3,3,3,,,6,WEEK 6,2006-12-14,43
ABC,QS,ABC-01-051,40,ERYTHEMA,Erythema (0-4),AAPASI,TRUNK,3,3,3,,,8,WEEK 8,2006-12-28,57
ABC,QS,ABC-01-051,41,ERYTHEMA,Erythema (0-4),AAPASI,TRUNK,3,3,3,,,12,WEEK 12,2007-01-30,90
ABC,QS,ABC-01-051,42,ERYTHEMA,Erythema (0-4),AAPASI,TRUNK,3,3,3,,,16,WEEK 16,2007-03-08,127
ABC,QS,ABC-01-051,43,SCALE,Scale (0-4),AAPASI,TRUNK,3,3,3,Y,,1,DAY 1,2006-11-02,1
ABC,QS,ABC-01-051,44,SCALE,Scale (0-4),AAPASI,TRUNK,3,3,3,,,2,WEEK 2,2006-11-16,15
ABC,QS,ABC-01-051,45,SCALE,Scale (0-4),AAPASI,TRUNK,3,3,3,,,4,WEEK 4,2006-11-30,29
ABC,QS,ABC-01-051,46,SCALE,Scale (0-4),AAPASI,TRUNK,2,2,2,,,6,WEEK 6,2006-12-14,43
ABC,QS,ABC-01-051,47,SCALE,Scale (0-4),AAPASI,TRUNK,3,3,3,,,8,WEEK 8,2006-12-28,57
ABC,QS,ABC-01-051,48,SCALE,Scale (0-4),AAPASI,TRUNK,3,3,3,,,12,WEEK 12,2007-01-30,90
ABC,QS,ABC-01-051,49,SCALE,Scale (0-4),AAPASI,TRUNK,3,3,3,,,16,WEEK 16,2007-03-08,127
ABC,QS,ABC-01-051,50,THCKNESS,Induration (0-4),AAPASI,TRUNK,3,3,3,Y,,1,DAY 1,2006-11-02,1
ABC,QS,ABC-01-051,51,THCKNESS,Induration (0-4),AAPASI,TRUNK,3,3,3,,,2,WEEK 2,2006-11-16,15
ABC,QS,ABC-01-051,52,THCKNESS,Induration (0-4),AAPASI,TRUNK,3,3,3,,,4,WEEK 4,2006-11-30,29
ABC,QS,ABC-01-051,53,THCKNESS,Induration (0-4),AAPASI,TRUNK,2,2,2,,,6,WEEK 6,2006-12-14,43
ABC,QS,ABC-01-051,54,THCKNESS,Induration (0-4),AAPASI,TRUNK,2,2,2,,,8,WEEK 8,2006-12-28,57
ABC,QS,ABC-01-051,55,THCKNESS,Induration (0-4),AAPASI,TRUNK,3,3,3,,,12,WEEK 12,2007-01-30,90
ABC,QS,ABC-01-051,56,THCKNESS,Induration (0-4),AAPASI,TRUNK,3,3,3,,,16,WEEK 16,2007-03-08,127
ABC,QS,ABC-01-051,57,AREASCOR,Area Score (0-6),AAPASI,UPPER EXTREMITIES,2,2,2,Y,,1,DAY 1,2006-11-02,1
ABC,QS,ABC-01-051,58,AREASCOR,Area Score (0-6),AAPASI,UPPER EXTREMITIES,2,2,2,,,2,WEEK 2,2006-11-16,15
ABC,QS,ABC-01-051,59,AREASCOR,Area Score (0-6),AAPASI,UPPER EXTREMITIES,2,2,2,,,4,WEEK 4,2006-11-30,29
ABC,QS,ABC-01-051,60,AREASCOR,Area Score (0-6),AAPASI,UPPER EXTREMITIES,1,1,1,,,6,WEEK 6,2006-12-14,43
ABC,QS,ABC-01-051,61,AREASCOR,Area Score (0-6),AAPASI,UPPER EXTREMITIES,1,1,1,,,8,WEEK 8,2006-12-28,57
ABC,QS,ABC-01-051,62,AREASCOR,Area Score (0-6),AAPASI,UPPER EXTREMITIES,1,1,1,,,12,WEEK 12,2007-01-30,90
ABC,QS,ABC-01-051,63,AREASCOR,Area Score (0-6),AAPASI,UPPER EXTREMITIES,2,2,2,,,16,WEEK 16,2007-03-08,127
ABC,QS,ABC-01-051,64,ERYTHEMA,Erythema (0-4),AAPASI,UPPER EXTREMITIES,3,3,3,Y,,1,DAY 1,2006-11-02,1
ABC,QS,ABC-01-051,65,ERYTHEMA,Erythema (0-4),AAPASI,UPPER EXTREMITIES,2,2,2,,,2,WEEK 2,2006-11-16,15
ABC,QS,ABC-01-051,66,ERYTHEMA,Erythema (0-4),AAPASI,UPPER EXTREMITIES,1,1,1,,,4,WEEK 4,2006-11-30,29
ABC,QS,ABC-01-051,67,ERYTHEMA,Erythema (0-4),AAPASI,UPPER EXTREMITIES,3,3,3,,,6,WEEK 6,2006-12-14,43
ABC,QS,ABC-01-051,68,ERYTHEMA,Erythema (0-4),AAPASI,UPPER EXTREMITIES,3,3,3,,,8,WEEK 8,2006-12-28,57
ABC,QS,ABC-01-051,69,ERYTHEMA,Erythema (0-4),AAPASI,UPPER EXTREMITIES,3,3,3,,,12,WEEK 12,2007-01-30,90
ABC,QS,ABC-01-051,70,ERYTHEMA,Erythema (0-4),AAPASI,UPPER EXTREMITIES,3,3,3,,,16,WEEK 16,2007-03-08,127
ABC,QS,ABC-01-051,71,SCALE,Scale (0-4),AAPASI,UPPER EXTREMITIES,3,3,3,Y,,1,DAY 1,2006-11-02,1
ABC,QS,ABC-01-051,72,SCALE,Scale (0-4),AAPASI,UPPER EXTREMITIES,3,3,3,,,2,WEEK 2,2006-11-16,15
ABC,QS,ABC-01-051,73,SCALE,Scale (0-4),AAPASI,UPPER EXTREMITIES,3,3,3,,,4,WEEK 4,2006-11-30,29
ABC,QS,ABC-01-051,74,SCALE,Scale (0-4),AAPASI,UPPER EXTREMITIES,2,2,2,,,6,WEEK 6,2006-12-14,43
ABC,QS,ABC-01-051,75,SCALE,Scale (0-4),AAPASI,UPPER EXTREMITIES,3,3,3,,,8,WEEK 8,2006-12-28,57
ABC,QS,ABC-01-051,76,SCALE,Scale (0-4),AAPASI,UPPER EXTREMITIES,3,3,3,,,12,WEEK 12,2007-01-30,90
ABC,QS,ABC-01-051,77,SCALE,Scale (0-4),AAPASI,UPPER EXTREMITIES,3,3,3,,,16,WEEK 16,2007-03-08,127
ABC,QS,ABC-01-051,78,THCKNESS,Induration (0-4),AAPASI,UPPER EXTREMITIES,3,3,3,Y,,1,DAY 1,2006-11-02,1
ABC,QS,ABC-01-051,79,THCKNESS,Induration (0-4),AAPASI,UPPER EXTREMITIES,3,3,3,,,2,WEEK 2,2006-11-16,15
ABC,QS,ABC-01-051,80,THCKNESS,Induration (0-4),AAPASI,UPPER EXTREMITIES,3,3,3,,,4,WEEK 4,2006-11-30,29
ABC,QS,ABC-01-051,81,THCKNESS,Induration (0-4),AAPASI,UPPER EXTREMITIES,2,2,2,,,6,WEEK 6,2006-12-14,43
ABC,QS,ABC-01-051,82,THCKNESS,Induration (0-4),AAPASI,UPPER EXTREMITIES,2,2,2,,,8,WEEK 8,2006-12-28,57
ABC,QS,ABC-01-051,83,THCKNESS,Induration (0-4),AAPASI,UPPER EXTREMITIES,3,3,3,,,12,WEEK 12,2007-01-30,90
ABC,QS,ABC-01-051,84,THCKNESS,Induration (0-4),AAPASI,UPPER EXTREMITIES,3,3,3,,,16,WEEK 16,2007-03-08,127
ABC,QS,ABC-01-051,85,PRURPS,Pruritus Point Scale,PRURITUS ASSESSMENT,,3,3,3,Y,,1,DAY 1,2006-11-02,1
ABC,QS,ABC-01-051,86,PRURPS,Pruritus Point Scale,PRURITUS ASSESSMENT,,2,2,2,,,2,WEEK 2,2006-11-16,15
ABC,QS,ABC-01-051,87,PRURPS,Pruritus Point Scale,PRURITUS ASSESSMENT,,1,1,1,,,4,WEEK 4,2006-11-30,29
ABC,QS,ABC-01-051,88,PRURPS,Pruritus Point Scale,PRURITUS ASSESSMENT,,2,2,2,,,6,WEEK 6,2006-12-14,43
ABC,QS,ABC-01-051,89,PRURPS,Pruritus Point Scale,PRURITUS ASSESSMENT,,1,1,1,,,8,WEEK 8,2006-12-28,57
ABC,QS,ABC-01-051,90,PRURPS,Pruritus Point Scale,PRURITUS ASSESSMENT,,4,4,4,,,12,WEEK 12,2007-01-30,90
ABC,QS,ABC-01-051,91,PRURPS,Pruritus Point Scale,PRURITUS ASSESSMENT,,5,5,5,,,16,WEEK 16,2007-03-08,127
ABC,QS,ABC-01-051,92,PSGA,PSGA Score,PSGA,,3,3,3,Y,,1,DAY 1,2006-11-02,1
ABC,QS,ABC-01-051,93,PSGA,PSGA Score,PSGA,,3,3,3,,,2,WEEK 2,2006-11-16,15
ABC,QS,ABC-01-051,94,PSGA,PSGA Score,PSGA,,3,3,3,,,4,WEEK 4,2006-11-30,29
ABC,QS,ABC-01-051,95,PSGA,PSGA Score,PSGA,,2,2,2,,,6,WEEK 6,2006-12-14,43
ABC,QS,ABC-01-051,96,PSGA,PSGA Score,PSGA,,3,3,3,,,8,WEEK 8,2006-12-28,57
ABC,QS,ABC-01-051,97,PSGA,PSGA Score,PSGA,,3,3,3,,,12,WEEK 12,2007-01-30,90
ABC,QS,ABC-01-051,98,PSGA,PSGA Score,PSGA,,3,3,3,,,16,WEEK 16,2007-03-08,127
ABC,QS,ABC-01-051,99,BODYAC,Body Area Code,PSI,PLAQUE 1,7,7,7,Y,,1,DAY 1,2006-11-02,1
ABC,QS,ABC-01-051,100,BODYAC,Body Area Code,PSI,PLAQUE 1,7,7,7,,,2,WEEK 2,2006-11-16,15
ABC,QS,ABC-01-051,101,BODYAC,Body Area Code,PSI,PLAQUE 1,7,7,7,,,4,WEEK 4,2006-11-30,29
ABC,QS,ABC-01-051,102,BODYAC,Body Area Code,PSI,PLAQUE 1,7,7,7,,,6,WEEK 6,2006-12-14,43
ABC,QS,ABC-01-051,103,BODYAC,Body Area Code,PSI,PLAQUE 1,7,7,7,,,8,WEEK 8,2006-12-28,57
ABC,QS,ABC-01-051,104,BODYAC,Body Area Code,PSI,PLAQUE 1,7,7,7,,,12,WEEK 12,2007-01-30,90
ABC,QS,ABC-01-051,105,BODYAC,Body Area Code,PSI,PLAQUE 1,7,7,7,,,16,WEEK 16,2007-03-08,127
ABC,QS,ABC-01-051,106,CPSS,CPSS,PSI,PLAQUE 1,8,8,8,Y,Y,1,DAY 1,2006-11-02,1
ABC,QS,ABC-01-051,107,CPSS,CPSS,PSI,PLAQUE 1,9,9,9,,Y,2,WEEK 2,2006-11-16,15
ABC,QS,ABC-01-051,108,CPSS,CPSS,PSI,PLAQUE 1,8,8,8,,Y,4,WEEK 4,2006-11-30,29
ABC,QS,ABC-01-051,109,CPSS,CPSS,PSI,PLAQUE 1,7,7,7,,Y,6,WEEK 6,2006-12-14,43
ABC,QS,ABC-01-051,110,CPSS,CPSS,PSI,PLAQUE 1,8,8,8,,Y,8,WEEK 8,2006-12-28,57
ABC,QS,ABC-01-051,111,CPSS,CPSS,PSI,PLAQUE 1,9,9,9,,Y,12,WEEK 12,2007-01-30,90
ABC,QS,ABC-01-051,112,CPSS,CPSS,PSI,PLAQUE 1,12,12,12,,Y,16,WEEK 16,2007-03-08,127
ABC,QS,ABC-01-051,113,ERYTHSS,Erythema Severity Score,PSI,PLAQUE 1,2,2,2,Y,,1,DAY 1,2006-11-02,1
ABC,QS,ABC-01-051,114,ERYTHSS,Erythema Severity Score,PSI,PLAQUE 1,3,3,3,,,2,WEEK 2,2006-11-16,15
ABC,QS,ABC-01-051,115,ERYTHSS,Erythema Severity Score,PSI,PLAQUE 1,2,2,2,,,4,WEEK 4,2006-11-30,29
ABC,QS,ABC-01-051,116,ERYTHSS,Erythema Severity Score,PSI,PLAQUE 1,3,3,3,,,6,WEEK 6,2006-12-14,43
ABC,QS,ABC-01-051,117,ERYTHSS,Erythema Severity Score,PSI,PLAQUE 1,3,3,3,,,8,WEEK 8,2006-12-28,57
ABC,QS,ABC-01-051,118,ERYTHSS,Erythema Severity Score,PSI,PLAQUE 1,3,3,3,,,12,WEEK 12,2007-01-30,90
ABC,QS,ABC-01-051,119,ERYTHSS,Erythema Severity Score,PSI,PLAQUE 1,4,4,4,,,16,WEEK 16,2007-03-08,127
ABC,QS,ABC-01-051,120,INDURSS,Induration Severity Score,PSI,PLAQUE 1,3,3,3,Y,,1,DAY 1,2006-11-02,1
ABC,QS,ABC-01-051,121,INDURSS,Induration Severity Score,PSI,PLAQUE 1,3,3,3,,,2,WEEK 2,2006-11-16,15
ABC,QS,ABC-01-051,122,INDURSS,Induration Severity Score,PSI,PLAQUE 1,3,3,3,,,4,WEEK 4,2006-11-30,29
ABC,QS,ABC-01-051,123,INDURSS,Induration Severity Score,PSI,PLAQUE 1,2,2,2,,,6,WEEK 6,2006-12-14,43
ABC,QS,ABC-01-051,124,INDURSS,Induration Severity Score,PSI,PLAQUE 1,2,2,2,,,8,WEEK 8,2006-12-28,57
ABC,QS,ABC-01-051,125,INDURSS,Induration Severity Score,PSI,PLAQUE 1,3,3,3,,,12,WEEK 12,2007-01-30,90
ABC,QS,ABC-01-051,126,INDURSS,Induration Severity Score,PSI,PLAQUE 1,4,4,4,,,16,WEEK 16,2007-03-08,127
ABC,QS,ABC-01-051,127,SCALSS,Scaling Severity Score,PSI,PLAQUE 1,3,3,3,Y,,1,DAY 1,2006-11-02,1
ABC,QS,ABC-01-051,128,SCALSS,Scaling Severity Score,PSI,PLAQUE 1,3,3,3,,,2,WEEK 2,2006-11-16,15
ABC,QS,ABC-01-051,129,SCALSS,Scaling Severity Score,PSI,PLAQUE 1,3,3,3,,,4,WEEK 4,2006-11-30,29
ABC,QS,ABC-01-051,130,SCALSS,Scaling Severity Score,PSI,PLAQUE 1,2,2,2,,,6,WEEK 6,2006-12-14,43
ABC,QS,ABC-01-051,131,SCALSS,Scaling Severity Score,PSI,PLAQUE 1,3,3,3,,,8,WEEK 8,2006-12-28,57
ABC,QS,ABC-01-051,132,SCALSS,Scaling Severity Score,PSI,PLAQUE 1,3,3,3,,,12,WEEK 12,2007-01-30,90
ABC,QS,ABC-01-051,133,SCALSS,Scaling Severity Score,PSI,PLAQUE 1,4,4,4,,,16,WEEK 16,2007-03-08,127
ABC,QS,ABC-01-051,134,BODYAC,Body Area Code,PSI,PLAQUE 2,15,15,15,Y,,1,DAY 1,2006-11-02,1
ABC,QS,ABC-01-051,135,BODYAC,Body Area Code,PSI,PLAQUE 2,15,15,15,,,2,WEEK 2,2006-11-16,15
ABC,QS,ABC-01-051,136,BODYAC,Body Area Code,PSI,PLAQUE 2,15,15,15,,,4,WEEK 4,2006-11-30,29
ABC,QS,ABC-01-051,137,BODYAC,Body Area Code,PSI,PLAQUE 2,15,15,15,,,6,WEEK 6,2006-12-14,43
ABC,QS,ABC-01-051,138,BODYAC,Body Area Code,PSI,PLAQUE 2,15,15,15,,,8,WEEK 8,2006-12-28,57
ABC,QS,ABC-01-051,139,BODYAC,Body Area Code,PSI,PLAQUE 2,15,15,15,,,12,WEEK 12,2007-01-30,90
ABC,QS,ABC-01-051,140,BODYAC,Body Area Code,PSI,PLAQUE 2,15,15,15,,,16,WEEK 16,2007-03-08,127
ABC,QS,ABC-01-051,141,CPSS,CPSS,PSI,PLAQUE 2,9,9,9,Y,Y,1,DAY 1,2006-11-02,1
ABC,QS,ABC-01-051,142,CPSS,CPSS,PSI,PLAQUE 2,9,9,9,,Y,2,WEEK 2,2006-11-16,15
ABC,QS,ABC-01-051,143,CPSS,CPSS,PSI,PLAQUE 2,8,8,8,,Y,4,WEEK 4,2006-11-30,29
ABC,QS,ABC-01-051,144,CPSS,CPSS,PSI,PLAQUE 2,7,7,7,,Y,6,WEEK 6,2006-12-14,43
ABC,QS,ABC-01-051,145,CPSS,CPSS,PSI,PLAQUE 2,8,8,8,,Y,8,WEEK 8,2006-12-28,57
ABC,QS,ABC-01-051,146,CPSS,CPSS,PSI,PLAQUE 2,9,9,9,,Y,12,WEEK 12,2007-01-30,90
ABC,QS,ABC-01-051,147,CPSS,CPSS,PSI,PLAQUE 2,11,11,11,,Y,16,WEEK 16,2007-03-08,127
ABC,QS,ABC-01-051,148,ERYTHSS,Erythema Severity Score,PSI,PLAQUE 2,3,3,3,Y,,1,DAY 1,2006-11-02,1
ABC,QS,ABC-01-051,149,ERYTHSS,Erythema Severity Score,PSI,PLAQUE 2,3,3,3,,,2,WEEK 2,2006-11-16,15
ABC,QS,ABC-01-051,150,ERYTHSS,Erythema Severity Score,PSI,PLAQUE 2,2,2,2,,,4,WEEK 4,2006-11-30,29
ABC,QS,ABC-01-051,151,ERYTHSS,Erythema Severity Score,PSI,PLAQUE 2,3,3,3,,,6,WEEK 6,2006-12-14,43
ABC,QS,ABC-01-051,152,ERYTHSS,Erythema Severity Score,PSI,PLAQUE 2,3,3,3,,,8,WEEK 8,2006-12-28,57
ABC,QS,ABC-01-051,153,ERYTHSS,Erythema Severity Score,PSI,PLAQUE 2,3,3,3,,,12,WEEK 12,2007-01-30,90
ABC,QS,ABC-01-051,154,ERYTHSS,Erythema Severity Score,PSI,PLAQUE 2,3,3,3,,,16,WEEK 16,2007-03-08,127
ABC,QS,ABC-01-051,155,INDURSS,Induration Severity Score,PSI,PLAQUE 2,3,3,3,Y,,1,DAY 1,2006-11-02,1
ABC,QS,ABC-01-051,156,INDURSS,Induration Severity Score,PSI,PLAQUE 2,3,3,3,,,2,WEEK 2,2006-11-16,15
ABC,QS,ABC-01-051,157,INDURSS,Induration Severity Score,PSI,PLAQUE 2,3,3,3,,,4,WEEK 4,2006-11-30,29
ABC,QS,ABC-01-051,158,INDURSS,Induration Severity Score,PSI,PLAQUE 2,2,2,2,,,6,WEEK 6,2006-12-14,43
ABC,QS,ABC-01-051,159,INDURSS,Induration Severity Score,PSI,PLAQUE 2,2,2,2,,,8,WEEK 8,2006-12-28,57
ABC,QS,ABC-01-051,160,INDURSS,Induration Severity Score,PSI,PLAQUE 2,3,3,3,,,12,WEEK 12,2007-01-30,90
ABC,QS,ABC-01-051,161,INDURSS,Induration Severity Score,PSI,PLAQUE 2,4,4,4,,,16,WEEK 16,2007-03-08,127
ABC,QS,ABC-01-051,162,SCALSS,Scaling Severity Score,PSI,PLAQUE 2,3,3,3,Y,,1,DAY 1,2006-11-02,1
ABC,QS,ABC-01-051,163,SCALSS,Scaling Severity Score,PSI,PLAQUE 2,3,3,3,,,2,WEEK 2,2006-11-16,15
ABC,QS,ABC-01-051,164,SCALSS,Scaling Severity Score,PSI,PLAQUE 2,3,3,3,,,4,WEEK 4,2006-11-30,29
ABC,QS,ABC-01-051,165,SCALSS,Scaling Severity Score,PSI,PLAQUE 2,2,2,2,,,6,WEEK 6,2006-12-14,43
ABC,QS,ABC-01-051,166,SCALSS,Scaling Severity Score,PSI,PLAQUE 2,3,3,3,,,8,WEEK 8,2006-12-28,57
ABC,QS,ABC-01-051,167,SCALSS,Scaling Severity Score,PSI,PLAQUE 2,3,3,3,,,12,WEEK 12,2007-01-30,90
ABC,QS,ABC-01-051,168,SCALSS,Scaling Severity Score,PSI,PLAQUE 2,4,4,4,,,16,WEEK 16,2007-03-08,127
ABC,QS,ABC-01-052,1,AREASCOR,Area Score (0-6),AAPASI,LOWER EXTREMITIES,2,2,2,Y,,1,DAY 1,2006-11-06,1
ABC,QS,ABC-01-052,2,AREASCOR,Area Score (0-6),AAPASI,LOWER EXTREMITIES,1,1,1,,,2,WEEK 2,2006-11-22,17
ABC,QS,ABC-01-052,3,AREASCOR,Area Score (0-6),AAPASI,LOWER EXTREMITIES,2,2,2,,,4,WEEK 4,2006-12-04,29
ABC,QS,ABC-01-052,4,AREASCOR,Area Score (0-6),AAPASI,LOWER EXTREMITIES,2,2,2,,,6,WEEK 6,2006-12-21,46
ABC,QS,ABC-01-052,5,AREASCOR,Area Score (0-6),AAPASI,LOWER EXTREMITIES,2,2,2,,,8,WEEK 8,2007-01-03,59
ABC,QS,ABC-01-052,6,AREASCOR,Area Score (0-6),AAPASI,LOWER EXTREMITIES,1,1,1,,,12,WEEK 12,2007-01-30,86
ABC,QS,ABC-01-052,7,AREASCOR,Area Score (0-6),AAPASI,LOWER EXTREMITIES,2,2,2,,,16,WEEK 16,2007-03-05,120
ABC,QS,ABC-01-052,8,ERYTHEMA,Erythema (0-4),AAPASI,LOWER EXTREMITIES,2,2,2,Y,,1,DAY 1,2006-11-06,1
ABC,QS,ABC-01-052,9,ERYTHEMA,Erythema (0-4),AAPASI,LOWER EXTREMITIES,2,2,2,,,2,WEEK 2,2006-11-22,17
ABC,QS,ABC-01-052,10,ERYTHEMA,Erythema (0-4),AAPASI,LOWER EXTREMITIES,1,1,1,,,4,WEEK 4,2006-12-04,29
ABC,QS,ABC-01-052,11,ERYTHEMA,Erythema (0-4),AAPASI,LOWER EXTREMITIES,1,1,1,,,6,WEEK 6,2006-12-21,46
ABC,QS,ABC-01-052,12,ERYTHEMA,Erythema (0-4),AAPASI,LOWER EXTREMITIES,1,1,1,,,8,WEEK 8,2007-01-03,59
ABC,QS,ABC-01-052,13,ERYTHEMA,Erythema (0-4),AAPASI,LOWER EXTREMITIES,1,1,1,,,12,WEEK 12,2007-01-30,86
ABC,QS,ABC-01-052,14,ERYTHEMA,Erythema (0-4),AAPASI,LOWER EXTREMITIES,2,2,2,,,16,WEEK 16,2007-03-05,120
ABC,QS,ABC-01-052,15,SCALE,Scale (0-4),AAPASI,LOWER EXTREMITIES,2,2,2,Y,,1,DAY 1,2006-11-06,1
ABC,QS,ABC-01-052,16,SCALE,Scale (0-4),AAPASI,LOWER EXTREMITIES,2,2,2,,,2,WEEK 2,2006-11-22,17
ABC,QS,ABC-01-052,17,SCALE,Scale (0-4),AAPASI,LOWER EXTREMITIES,2,2,2,,,4,WEEK 4,2006-12-04,29
ABC,QS,ABC-01-052,18,SCALE,Scale (0-4),AAPASI,LOWER EXTREMITIES,2,2,2,,,6,WEEK 6,2006-12-21,46
ABC,QS,ABC-01-052,19,SCALE,Scale (0-4),AAPASI,LOWER EXTREMITIES,2,2,2,,,8,WEEK 8,2007-01-03,59
ABC,QS,ABC-01-052,20,SCALE,Scale (0-4),AAPASI,LOWER EXTREMITIES,2,2,2,,,12,WEEK 12,2007-01-30,86
ABC,QS,ABC-01-052,21,SCALE,Scale (0-4),AAPASI,LOWER EXTREMITIES,2,2,2,,,16,WEEK 16,2007-03-05,120
ABC,QS,ABC-01-052,22,THCKNESS,Induration (0-4),AAPASI,LOWER EXTREMITIES,2,2,2,Y,,1,DAY 1,2006-11-06,1
ABC,QS,ABC-01-052,23,THCKNESS,Induration (0-4),AAPASI,LOWER EXTREMITIES,2,2,2,,,2,WEEK 2,2006-11-22,17
ABC,QS,ABC-01-052,24,THCKNESS,Induration (0-4),AAPASI,LOWER EXTREMITIES,1,1,1,,,4,WEEK 4,2006-12-04,29
ABC,QS,ABC-01-052,25,THCKNESS,Induration (0-4),AAPASI,LOWER EXTREMITIES,1,1,1,,,6,WEEK 6,2006-12-21,46
ABC,QS,ABC-01-052,26,THCKNESS,Induration (0-4),AAPASI,LOWER EXTREMITIES,1,1,1,,,8,WEEK 8,2007-01-03,59
ABC,QS,ABC-01-052,27,THCKNESS,Induration (0-4),AAPASI,LOWER EXTREMITIES,2,2,2,,,12,WEEK 12,2007-01-30,86
ABC,QS,ABC-01-052,28,THCKNESS,Induration (0-4),AAPASI,LOWER EXTREMITIES,2,2,2,,,16,WEEK 16,2007-03-05,120
ABC,QS,ABC-01-052,29,AREASCOR,Area Score (0-6),AAPASI,TRUNK,2,2,2,Y,,1,DAY 1,2006-11-06,1
ABC,QS,ABC-01-052,30,AREASCOR,Area Score (0-6),AAPASI,TRUNK,1,1,1,,,2,WEEK 2,2006-11-22,17
ABC,QS,ABC-01-052,31,AREASCOR,Area Score (0-6),AAPASI,TRUNK,0,0,0,,,4,WEEK 4,2006-12-04,29
ABC,QS,ABC-01-052,32,AREASCOR,Area Score (0-6),AAPASI,TRUNK,1,1,1,,,6,WEEK 6,2006-12-21,46
ABC,QS,ABC-01-052,33,AREASCOR,Area Score (0-6),AAPASI,TRUNK,1,1,1,,,8,WEEK 8,2007-01-03,59
ABC,QS,ABC-01-052,34,AREASCOR,Area Score (0-6),AAPASI,TRUNK,1,1,1,,,12,WEEK 12,2007-01-30,86
ABC,QS,ABC-01-052,35,AREASCOR,Area Score (0-6),AAPASI,TRUNK,2,2,2,,,16,WEEK 16,2007-03-05,120
ABC,QS,ABC-01-052,36,ERYTHEMA,Erythema (0-4),AAPASI,TRUNK,2,2,2,Y,,1,DAY 1,2006-11-06,1
ABC,QS,ABC-01-052,37,ERYTHEMA,Erythema (0-4),AAPASI,TRUNK,2,2,2,,,2,WEEK 2,2006-11-22,17
ABC,QS,ABC-01-052,38,ERYTHEMA,Erythema (0-4),AAPASI,TRUNK,0,0,0,,,4,WEEK 4,2006-12-04,29
ABC,QS,ABC-01-052,39,ERYTHEMA,Erythema (0-4),AAPASI,TRUNK,1,1,1,,,6,WEEK 6,2006-12-21,46
ABC,QS,ABC-01-052,40,ERYTHEMA,Erythema (0-4),AAPASI,TRUNK,1,1,1,,,8,WEEK 8,2007-01-03,59
ABC,QS,ABC-01-052,41,ERYTHEMA,Erythema (0-4),AAPASI,TRUNK,1,1,1,,,12,WEEK 12,2007-01-30,86
ABC,QS,ABC-01-052,42,ERYTHEMA,Erythema (0-4),AAPASI,TRUNK,2,2,2,,,16,WEEK 16,2007-03-05,120
ABC,QS,ABC-01-052,43,SCALE,Scale (0-4),AAPASI,TRUNK,2,2,2,Y,,1,DAY 1,2006-11-06,1
ABC,QS,ABC-01-052,44,SCALE,Scale (0-4),AAPASI,TRUNK,2,2,2,,,2,WEEK 2,2006-11-22,17
ABC,QS,ABC-01-052,45,SCALE,Scale (0-4),AAPASI,TRUNK,0,0,0,,,4,WEEK 4,2006-12-04,29
ABC,QS,ABC-01-052,46,SCALE,Scale (0-4),AAPASI,TRUNK,1,1,1,,,6,WEEK 6,2006-12-21,46
ABC,QS,ABC-01-052,47,SCALE,Scale (0-4),AAPASI,TRUNK,2,2,2,,,8,WEEK 8,2007-01-03,59
ABC,QS,ABC-01-052,48,SCALE,Scale (0-4),AAPASI,TRUNK,2,2,2,,,12,WEEK 12,2007-01-30,86
ABC,QS,ABC-01-052,49,SCALE,Scale (0-4),AAPASI,TRUNK,2,2,2,,,16,WEEK 16,2007-03-05,120
ABC,QS,ABC-01-052,50,THCKNESS,Induration (0-4),AAPASI,TRUNK,2,2,2,Y,,1,DAY 1,2006-11-06,1
ABC,QS,ABC-01-052,51,THCKNESS,Induration (0-4),AAPASI,TRUNK,2,2,2,,,2,WEEK 2,2006-11-22,17
ABC,QS,ABC-01-052,52,THCKNESS,Induration (0-4),AAPASI,TRUNK,0,0,0,,,4,WEEK 4,2006-12-04,29
ABC,QS,ABC-01-052,53,THCKNESS,Induration (0-4),AAPASI,TRUNK,1,1,1,,,6,WEEK 6,2006-12-21,46
ABC,QS,ABC-01-052,54,THCKNESS,Induration (0-4),AAPASI,TRUNK,1,1,1,,,8,WEEK 8,2007-01-03,59
ABC,QS,ABC-01-052,55,THCKNESS,Induration (0-4),AAPASI,TRUNK,2,2,2,,,12,WEEK 12,2007-01-30,86
ABC,QS,ABC-01-052,56,THCKNESS,Induration (0-4),AAPASI,TRUNK,2,2,2,,,16,WEEK 16,2007-03-05,120
ABC,QS,ABC-01-052,57,AREASCOR,Area Score (0-6),AAPASI,UPPER EXTREMITIES,2,2,2,Y,,1,DAY 1,2006-11-06,1
ABC,QS,ABC-01-052,58,AREASCOR,Area Score (0-6),AAPASI,UPPER EXTREMITIES,2,2,2,,,2,WEEK 2,2006-11-22,17
ABC,QS,ABC-01-052,59,AREASCOR,Area Score (0-6),AAPASI,UPPER EXTREMITIES,2,2,2,,,4,WEEK 4,2006-12-04,29
ABC,QS,ABC-01-052,60,AREASCOR,Area Score (0-6),AAPASI,UPPER EXTREMITIES,2,2,2,,,6,WEEK 6,2006-12-21,46
ABC,QS,ABC-01-052,61,AREASCOR,Area Score (0-6),AAPASI,UPPER EXTREMITIES,1,1,1,,,8,WEEK 8,2007-01-03,59
ABC,QS,ABC-01-052,62,AREASCOR,Area Score (0-6),AAPASI,UPPER EXTREMITIES,1,1,1,,,12,WEEK 12,2007-01-30,86
ABC,QS,ABC-01-052,63,AREASCOR,Area Score (0-6),AAPASI,UPPER EXTREMITIES,2,2,2,,,16,WEEK 16,2007-03-05,120
ABC,QS,ABC-01-052,64,ERYTHEMA,Erythema (0-4),AAPASI,UPPER EXTREMITIES,2,2,2,Y,,1,DAY 1,2006-11-06,1
ABC,QS,ABC-01-052,65,ERYTHEMA,Erythema (0-4),AAPASI,UPPER EXTREMITIES,2,2,2,,,2,WEEK 2,2006-11-22,17
ABC,QS,ABC-01-052,66,ERYTHEMA,Erythema (0-4),AAPASI,UPPER EXTREMITIES,1,1,1,,,4,WEEK 4,2006-12-04,29
ABC,QS,ABC-01-052,67,ERYTHEMA,Erythema (0-4),AAPASI,UPPER EXTREMITIES,1,1,1,,,6,WEEK 6,2006-12-21,46
ABC,QS,ABC-01-052,68,ERYTHEMA,Erythema (0-4),AAPASI,UPPER EXTREMITIES,1,1,1,,,8,WEEK 8,2007-01-03,59
ABC,QS,ABC-01-052,69,ERYTHEMA,Erythema (0-4),AAPASI,UPPER EXTREMITIES,1,1,1,,,12,WEEK 12,2007-01-30,86
ABC,QS,ABC-01-052,70,ERYTHEMA,Erythema (0-4),AAPASI,UPPER EXTREMITIES,2,2,2,,,16,WEEK 16,2007-03-05,120
ABC,QS,ABC-01-052,71,SCALE,Scale (0-4),AAPASI,UPPER EXTREMITIES,2,2,2,Y,,1,DAY 1,2006-11-06,1
ABC,QS,ABC-01-052,72,SCALE,Scale (0-4),AAPASI,UPPER EXTREMITIES,2,2,2,,,2,WEEK 2,2006-11-22,17
ABC,QS,ABC-01-052,73,SCALE,Scale (0-4),AAPASI,UPPER EXTREMITIES,2,2,2,,,4,WEEK 4,2006-12-04,29
ABC,QS,ABC-01-052,74,SCALE,Scale (0-4),AAPASI,UPPER EXTREMITIES,2,2,2,,,6,WEEK 6,2006-12-21,46
ABC,QS,ABC-01-052,75,SCALE,Scale (0-4),AAPASI,UPPER EXTREMITIES,2,2,2,,,8,WEEK 8,2007-01-03,59
ABC,QS,ABC-01-052,76,SCALE,Scale (0-4),AAPASI,UPPER EXTREMITIES,2,2,2,,,12,WEEK 12,2007-01-30,86
ABC,QS,ABC-01-052,77,SCALE,Scale (0-4),AAPASI,UPPER EXTREMITIES,2,2,2,,,16,WEEK 16,2007-03-05,120
ABC,QS,ABC-01-052,78,THCKNESS,Induration (0-4),AAPASI,UPPER EXTREMITIES,2,2,2,Y,,1,DAY 1,2006-11-06,1
ABC,QS,ABC-01-052,79,THCKNESS,Induration (0-4),AAPASI,UPPER EXTREMITIES,2,2,2,,,2,WEEK 2,2006-11-22,17
ABC,QS,ABC-01-052,80,THCKNESS,Induration (0-4),AAPASI,UPPER EXTREMITIES,1,1,1,,,4,WEEK 4,2006-12-04,29
ABC,QS,ABC-01-052,81,THCKNESS,Induration (0-4),AAPASI,UPPER EXTREMITIES,1,1,1,,,6,WEEK 6,2006-12-21,46
ABC,QS,ABC-01-052,82,THCKNESS,Induration (0-4),AAPASI,UPPER EXTREMITIES,1,1,1,,,8,WEEK 8,2007-01-03,59
ABC,QS,ABC-01-052,83,THCKNESS,Induration (0-4),AAPASI,UPPER EXTREMITIES,2,2,2,,,12,WEEK 12,2007-01-30,86
ABC,QS,ABC-01-052,84,THCKNESS,Induration (0-4),AAPASI,UPPER EXTREMITIES,2,2,2,,,16,WEEK 16,2007-03-05,120
ABC,QS,ABC-01-052,85,PRURPS,Pruritus Point Scale,PRURITUS ASSESSMENT,,3,3,3,Y,,1,DAY 1,2006-11-06,1
ABC,QS,ABC-01-052,86,PRURPS,Pruritus Point Scale,PRURITUS ASSESSMENT,,0,0,0,,,2,WEEK 2,2006-11-22,17
ABC,QS,ABC-01-052,87,PRURPS,Pruritus Point Scale,PRURITUS ASSESSMENT,,1,1,1,,,4,WEEK 4,2006-12-04,29
ABC,QS,ABC-01-052,88,PRURPS,Pruritus Point Scale,PRURITUS ASSESSMENT,,3,3,3,,,6,WEEK 6,2006-12-21,46
ABC,QS,ABC-01-052,89,PRURPS,Pruritus Point Scale,PRURITUS ASSESSMENT,,2,2,2,,,8,WEEK 8,2007-01-03,59
ABC,QS,ABC-01-052,90,PRURPS,Pruritus Point Scale,PRURITUS ASSESSMENT,,1,1,1,,,12,WEEK 12,2007-01-30,86
ABC,QS,ABC-01-052,91,PRURPS,Pruritus Point Scale,PRURITUS ASSESSMENT,,3,3,3,,,16,WEEK 16,2007-03-05,120
ABC,QS,ABC-01-052,92,PSGA,PSGA Score,PSGA,,2,2,2,Y,,1,DAY 1,2006-11-06,1
ABC,QS,ABC-01-052,93,PSGA,PSGA Score,PSGA,,2,2,2,,,2,WEEK 2,2006-11-22,17
ABC,QS,ABC-01-052,94,PSGA,PSGA Score,PSGA,,1,1,1,,,4,WEEK 4,2006-12-04,29
ABC,QS,ABC-01-052,95,PSGA,PSGA Score,PSGA,,1,1,1,,,6,WEEK 6,2006-12-21,46
ABC,QS,ABC-01-052,96,PSGA,PSGA Score,PSGA,,1,1,1,,,8,WEEK 8,2007-01-03,59
ABC,QS,ABC-01-052,97,PSGA,PSGA Score,PSGA,,2,2,2,,,12,WEEK 12,2007-01-30,86
ABC,QS,ABC-01-052,98,PSGA,PSGA Score,PSGA,,3,3,3,,,16,WEEK 16,2007-03-05,120
ABC,QS,ABC-01-052,99,BODYAC,Body Area Code,PSI,PLAQUE 1,3,3,3,Y,,1,DAY 1,2006-11-06,1
ABC,QS,ABC-01-052,100,BODYAC,Body Area Code,PSI,PLAQUE 1,3,3,3,,,2,WEEK 2,2006-11-22,17
ABC,QS,ABC-01-052,101,BODYAC,Body Area Code,PSI,PLAQUE 1,3,3,3,,,4,WEEK 4,2006-12-04,29
ABC,QS,ABC-01-052,102,BODYAC,Body Area Code,PSI,PLAQUE 1,3,3,3,,,6,WEEK 6,2006-12-21,46
ABC,QS,ABC-01-052,103,BODYAC,Body Area Code,PSI,PLAQUE 1,3,3,3,,,8,WEEK 8,2007-01-03,59
ABC,QS,ABC-01-052,104,BODYAC,Body Area Code,PSI,PLAQUE 1,3,3,3,,,12,WEEK 12,2007-01-30,86
ABC,QS,ABC-01-052,105,BODYAC,Body Area Code,PSI,PLAQUE 1,3,3,3,,,16,WEEK 16,2007-03-05,120
ABC,QS,ABC-01-052,106,CPSS,CPSS,PSI,PLAQUE 1,6,6,6,Y,Y,1,DAY 1,2006-11-06,1
ABC,QS,ABC-01-052,107,CPSS,CPSS,PSI,PLAQUE 1,6,6,6,,Y,2,WEEK 2,2006-11-22,17
ABC,QS,ABC-01-052,108,CPSS,CPSS,PSI,PLAQUE 1,4,4,4,,Y,4,WEEK 4,2006-12-04,29
ABC,QS,ABC-01-052,109,CPSS,CPSS,PSI,PLAQUE 1,4,4,4,,Y,6,WEEK 6,2006-12-21,46
ABC,QS,ABC-01-052,110,CPSS,CPSS,PSI,PLAQUE 1,4,4,4,,Y,8,WEEK 8,2007-01-03,59
ABC,QS,ABC-01-052,111,CPSS,CPSS,PSI,PLAQUE 1,5,5,5,,Y,12,WEEK 12,2007-01-30,86
ABC,QS,ABC-01-052,112,CPSS,CPSS,PSI,PLAQUE 1,6,6,6,,Y,16,WEEK 16,2007-03-05,120
ABC,QS,ABC-01-052,113,ERYTHSS,Erythema Severity Score,PSI,PLAQUE 1,2,2,2,Y,,1,DAY 1,2006-11-06,1
ABC,QS,ABC-01-052,114,ERYTHSS,Erythema Severity Score,PSI,PLAQUE 1,2,2,2,,,2,WEEK 2,2006-11-22,17
ABC,QS,ABC-01-052,115,ERYTHSS,Erythema Severity Score,PSI,PLAQUE 1,1,1,1,,,4,WEEK 4,2006-12-04,29
ABC,QS,ABC-01-052,116,ERYTHSS,Erythema Severity Score,PSI,PLAQUE 1,1,1,1,,,6,WEEK 6,2006-12-21,46
ABC,QS,ABC-01-052,117,ERYTHSS,Erythema Severity Score,PSI,PLAQUE 1,1,1,1,,,8,WEEK 8,2007-01-03,59
ABC,QS,ABC-01-052,118,ERYTHSS,Erythema Severity Score,PSI,PLAQUE 1,1,1,1,,,12,WEEK 12,2007-01-30,86
ABC,QS,ABC-01-052,119,ERYTHSS,Erythema Severity Score,PSI,PLAQUE 1,1,1,1,,,16,WEEK 16,2007-03-05,120
ABC,QS,ABC-01-052,120,INDURSS,Induration Severity Score,PSI,PLAQUE 1,2,2,2,Y,,1,DAY 1,2006-11-06,1
ABC,QS,ABC-01-052,121,INDURSS,Induration Severity Score,PSI,PLAQUE 1,2,2,2,,,2,WEEK 2,2006-11-22,17
ABC,QS,ABC-01-052,122,INDURSS,Induration Severity Score,PSI,PLAQUE 1,1,1,1,,,4,WEEK 4,2006-12-04,29
ABC,QS,ABC-01-052,123,INDURSS,Induration Severity Score,PSI,PLAQUE 1,1,1,1,,,6,WEEK 6,2006-12-21,46
ABC,QS,ABC-01-052,124,INDURSS,Induration Severity Score,PSI,PLAQUE 1,1,1,1,,,8,WEEK 8,2007-01-03,59
ABC,QS,ABC-01-052,125,INDURSS,Induration Severity Score,PSI,PLAQUE 1,2,2,2,,,12,WEEK 12,2007-01-30,86
ABC,QS,ABC-01-052,126,INDURSS,Induration Severity Score,PSI,PLAQUE 1,2,2,2,,,16,WEEK 16,2007-03-05,120
ABC,QS,ABC-01-052,127,SCALSS,Scaling Severity Score,PSI,PLAQUE 1,2,2,2,Y,,1,DAY 1,2006-11-06,1
ABC,QS,ABC-01-052,128,SCALSS,Scaling Severity Score,PSI,PLAQUE 1,2,2,2,,,2,WEEK 2,2006-11-22,17
ABC,QS,ABC-01-052,129,SCALSS,Scaling Severity Score,PSI,PLAQUE 1,2,2,2,,,4,WEEK 4,2006-12-04,29
ABC,QS,ABC-01-052,130,SCALSS,Scaling Severity Score,PSI,PLAQUE 1,2,2,2,,,6,WEEK 6,2006-12-21,46
ABC,QS,ABC-01-052,131,SCALSS,Scaling Severity Score,PSI,PLAQUE 1,2,2,2,,,8,WEEK 8,2007-01-03,59
ABC,QS,ABC-01-052,132,SCALSS,Scaling Severity Score,PSI,PLAQUE 1,2,2,2,,,12,WEEK 12,2007-01-30,86
ABC,QS,ABC-01-052,133,SCALSS,Scaling Severity Score,PSI,PLAQUE 1,3,3,3,,,16,WEEK 16,2007-03-05,120
ABC,QS,ABC-01-052,134,BODYAC,Body Area Code,PSI,PLAQUE 2,22,22,22,Y,,1,DAY 1,2006-11-06,1
ABC,QS,ABC-01-052,135,BODYAC,Body Area Code,PSI,PLAQUE 2,22,22,22,,,2,WEEK 2,2006-11-22,17
ABC,QS,ABC-01-052,136,BODYAC,Body Area Code,PSI,PLAQUE 2,22,22,22,,,4,WEEK 4,2006-12-04,29
ABC,QS,ABC-01-052,137,BODYAC,Body Area Code,PSI,PLAQUE 2,22,22,22,,,6,WEEK 6,2006-12-21,46
ABC,QS,ABC-01-052,138,BODYAC,Body Area Code,PSI,PLAQUE 2,22,22,22,,,8,WEEK 8,2007-01-03,59
ABC,QS,ABC-01-052,139,BODYAC,Body Area Code,PSI,PLAQUE 2,22,22,22,,,12,WEEK 12,2007-01-30,86
ABC,QS,ABC-01-052,140,BODYAC,Body Area Code,PSI,PLAQUE 2,22,22,22,,,16,WEEK 16,2007-03-05,120
ABC,QS,ABC-01-052,141,CPSS,CPSS,PSI,PLAQUE 2,6,6,6,Y,Y,1,DAY 1,2006-11-06,1
ABC,QS,ABC-01-052,142,CPSS,CPSS,PSI,PLAQUE 2,6,6,6,,Y,2,WEEK 2,2006-11-22,17
ABC,QS,ABC-01-052,143,CPSS,CPSS,PSI,PLAQUE 2,4,4,4,,Y,4,WEEK 4,2006-12-04,29
ABC,QS,ABC-01-052,144,CPSS,CPSS,PSI,PLAQUE 2,4,4,4,,Y,6,WEEK 6,2006-12-21,46
ABC,QS,ABC-01-052,145,CPSS,CPSS,PSI,PLAQUE 2,4,4,4,,Y,8,WEEK 8,2007-01-03,59
ABC,QS,ABC-01-052,146,CPSS,CPSS,PSI,PLAQUE 2,5,5,5,,Y,12,WEEK 12,2007-01-30,86
ABC,QS,ABC-01-052,147,CPSS,CPSS,PSI,PLAQUE 2,5,5,5,,Y,16,WEEK 16,2007-03-05,120
ABC,QS,ABC-01-052,148,ERYTHSS,Erythema Severity Score,PSI,PLAQUE 2,2,2,2,Y,,1,DAY 1,2006-11-06,1
ABC,QS,ABC-01-052,149,ERYTHSS,Erythema Severity Score,PSI,PLAQUE 2,2,2,2,,,2,WEEK 2,2006-11-22,17
ABC,QS,ABC-01-052,150,ERYTHSS,Erythema Severity Score,PSI,PLAQUE 2,1,1,1,,,4,WEEK 4,2006-12-04,29
ABC,QS,ABC-01-052,151,ERYTHSS,Erythema Severity Score,PSI,PLAQUE 2,1,1,1,,,6,WEEK 6,2006-12-21,46
ABC,QS,ABC-01-052,152,ERYTHSS,Erythema Severity Score,PSI,PLAQUE 2,1,1,1,,,8,WEEK 8,2007-01-03,59
ABC,QS,ABC-01-052,153,ERYTHSS,Erythema Severity Score,PSI,PLAQUE 2,1,1,1,,,12,WEEK 12,2007-01-30,86
ABC,QS,ABC-01-052,154,ERYTHSS,Erythema Severity Score,PSI,PLAQUE 2,1,1,1,,,16,WEEK 16,2007-03-05,120
ABC,QS,ABC-01-052,155,INDURSS,Induration Severity Score,PSI,PLAQUE 2,2,2,2,Y,,1,DAY 1,2006-11-06,1
ABC,QS,ABC-01-052,156,INDURSS,Induration Severity Score,PSI,PLAQUE 2,2,2,2,,,2,WEEK 2,2006-11-22,17
ABC,QS,ABC-01-052,157,INDURSS,Induration Severity Score,PSI,PLAQUE 2,1,1,1,,,4,WEEK 4,2006-12-04,29
ABC,QS,ABC-01-052,158,INDURSS,Induration Severity Score,PSI,PLAQUE 2,1,1,1,,,6,WEEK 6,2006-12-21,46
ABC,QS,ABC-01-052,159,INDURSS,Induration Severity Score,PSI,PLAQUE 2,1,1,1,,,8,WEEK 8,2007-01-03,59
ABC,QS,ABC-01-052,160,INDURSS,Induration Severity Score,PSI,PLAQUE 2,2,2,2,,,12,WEEK 12,2007-01-30,86
ABC,QS,ABC-01-052,161,INDURSS,Induration Severity Score,PSI,PLAQUE 2,2,2,2,,,16,WEEK 16,2007-03-05,120
ABC,QS,ABC-01-052,162,SCALSS,Scaling Severity Score,PSI,PLAQUE 2,2,2,2,Y,,1,DAY 1,2006-11-06,1
ABC,QS,ABC-01-052,163,SCALSS,Scaling Severity Score,PSI,PLAQUE 2,2,2,2,,,2,WEEK 2,2006-11-22,17
ABC,QS,ABC-01-052,164,SCALSS,Scaling Severity Score,PSI,PLAQUE 2,2,2,2,,,4,WEEK 4,2006-12-04,29
ABC,QS,ABC-01-052,165,SCALSS,Scaling Severity Score,PSI,PLAQUE 2,2,2,2,,,6,WEEK 6,2006-12-21,46
ABC,QS,ABC-01-052,166,SCALSS,Scaling Severity Score,PSI,PLAQUE 2,2,2,2,,,8,WEEK 8,2007-01-03,59
ABC,QS,ABC-01-052,167,SCALSS,Scaling Severity Score,PSI,PLAQUE 2,2,2,2,,,12,WEEK 12,2007-01-30,86
ABC,QS,ABC-01-052,168,SCALSS,Scaling Severity Score,PSI,PLAQUE 2,2,2,2,,,16,WEEK 16,2007-03-05,120
ABC,QS,ABC-01-053,1,AREASCOR,Area Score (0-6),AAPASI,LOWER EXTREMITIES,2,2,2,Y,,1,DAY 1,2006-11-08,1
ABC,QS,ABC-01-053,2,AREASCOR,Area Score (0-6),AAPASI,LOWER EXTREMITIES,2,2,2,,,2,WEEK 2,2006-11-22,15
ABC,QS,ABC-01-053,3,AREASCOR,Area Score (0-6),AAPASI,LOWER EXTREMITIES,2,2,2,,,4,WEEK 4,2006-12-12,35
ABC,QS,ABC-01-053,4,ERYTHEMA,Erythema (0-4),AAPASI,LOWER EXTREMITIES,2,2,2,Y,,1,DAY 1,2006-11-08,1
ABC,QS,ABC-01-053,5,ERYTHEMA,Erythema (0-4),AAPASI,LOWER EXTREMITIES,2,2,2,,,2,WEEK 2,2006-11-22,15
ABC,QS,ABC-01-053,6,ERYTHEMA,Erythema (0-4),AAPASI,LOWER EXTREMITIES,2,2,2,,,4,WEEK 4,2006-12-12,35
ABC,QS,ABC-01-053,7,SCALE,Scale (0-4),AAPASI,LOWER EXTREMITIES,2,2,2,Y,,1,DAY 1,2006-11-08,1
ABC,QS,ABC-01-053,8,SCALE,Scale (0-4),AAPASI,LOWER EXTREMITIES,2,2,2,,,2,WEEK 2,2006-11-22,15
ABC,QS,ABC-01-053,9,SCALE,Scale (0-4),AAPASI,LOWER EXTREMITIES,1,1,1,,,4,WEEK 4,2006-12-12,35
ABC,QS,ABC-01-053,10,THCKNESS,Induration (0-4),AAPASI,LOWER EXTREMITIES,2,2,2,Y,,1,DAY 1,2006-11-08,1
ABC,QS,ABC-01-053,11,THCKNESS,Induration (0-4),AAPASI,LOWER EXTREMITIES,2,2,2,,,2,WEEK 2,2006-11-22,15
ABC,QS,ABC-01-053,12,THCKNESS,Induration (0-4),AAPASI,LOWER EXTREMITIES,1,1,1,,,4,WEEK 4,2006-12-12,35
ABC,QS,ABC-01-053,13,AREASCOR,Area Score (0-6),AAPASI,TRUNK,1,1,1,Y,,1,DAY 1,2006-11-08,1
ABC,QS,ABC-01-053,14,AREASCOR,Area Score (0-6),AAPASI,TRUNK,1,1,1,,,2,WEEK 2,2006-11-22,15
ABC,QS,ABC-01-053,15,AREASCOR,Area Score (0-6),AAPASI,TRUNK,0,0,0,,,4,WEEK 4,2006-12-12,35
ABC,QS,ABC-01-053,16,ERYTHEMA,Erythema (0-4),AAPASI,TRUNK,2,2,2,Y,,1,DAY 1,2006-11-08,1
ABC,QS,ABC-01-053,17,ERYTHEMA,Erythema (0-4),AAPASI,TRUNK,2,2,2,,,2,WEEK 2,2006-11-22,15
ABC,QS,ABC-01-053,18,ERYTHEMA,Erythema (0-4),AAPASI,TRUNK,0,0,0,,,4,WEEK 4,2006-12-12,35
ABC,QS,ABC-01-053,19,SCALE,Scale (0-4),AAPASI,TRUNK,2,2,2,Y,,1,DAY 1,2006-11-08,1
ABC,QS,ABC-01-053,20,SCALE,Scale (0-4),AAPASI,TRUNK,2,2,2,,,2,WEEK 2,2006-11-22,15
ABC,QS,ABC-01-053,21,SCALE,Scale (0-4),AAPASI,TRUNK,0,0,0,,,4,WEEK 4,2006-12-12,35
ABC,QS,ABC-01-053,22,THCKNESS,Induration (0-4),AAPASI,TRUNK,2,2,2,Y,,1,DAY 1,2006-11-08,1
ABC,QS,ABC-01-053,23,THCKNESS,Induration (0-4),AAPASI,TRUNK,2,2,2,,,2,WEEK 2,2006-11-22,15
ABC,QS,ABC-01-053,24,THCKNESS,Induration (0-4),AAPASI,TRUNK,0,0,0,,,4,WEEK 4,2006-12-12,35
ABC,QS,ABC-01-053,25,AREASCOR,Area Score (0-6),AAPASI,UPPER EXTREMITIES,2,2,2,Y,,1,DAY 1,2006-11-08,1
ABC,QS,ABC-01-053,26,AREASCOR,Area Score (0-6),AAPASI,UPPER EXTREMITIES,2,2,2,,,2,WEEK 2,2006-11-22,15
ABC,QS,ABC-01-053,27,AREASCOR,Area Score (0-6),AAPASI,UPPER EXTREMITIES,1,1,1,,,4,WEEK 4,2006-12-12,35
ABC,QS,ABC-01-053,28,ERYTHEMA,Erythema (0-4),AAPASI,UPPER EXTREMITIES,2,2,2,Y,,1,DAY 1,2006-11-08,1
ABC,QS,ABC-01-053,29,ERYTHEMA,Erythema (0-4),AAPASI,UPPER EXTREMITIES,2,2,2,,,2,WEEK 2,2006-11-22,15
ABC,QS,ABC-01-053,30,ERYTHEMA,Erythema (0-4),AAPASI,UPPER EXTREMITIES,1,1,1,,,4,WEEK 4,2006-12-12,35
ABC,QS,ABC-01-053,31,SCALE,Scale (0-4),AAPASI,UPPER EXTREMITIES,2,2,2,Y,,1,DAY 1,2006-11-08,1
ABC,QS,ABC-01-053,32,SCALE,Scale (0-4),AAPASI,UPPER EXTREMITIES,2,2,2,,,2,WEEK 2,2006-11-22,15
ABC,QS,ABC-01-053,33,SCALE,Scale (0-4),AAPASI,UPPER EXTREMITIES,1,1,1,,,4,WEEK 4,2006-12-12,35
ABC,QS,ABC-01-053,34,THCKNESS,Induration (0-4),AAPASI,UPPER EXTREMITIES,2,2,2,Y,,1,DAY 1,2006-11-08,1
ABC,QS,ABC-01-053,35,THCKNESS,Induration (0-4),AAPASI,UPPER EXTREMITIES,2,2,2,,,2,WEEK 2,2006-11-22,15
ABC,QS,ABC-01-053,36,THCKNESS,Induration (0-4),AAPASI,UPPER EXTREMITIES,2,2,2,,,4,WEEK 4,2006-12-12,35
ABC,QS,ABC-01-053,37,PRURPS,Pruritus Point Scale,PRURITUS ASSESSMENT,,3,3,3,Y,,1,DAY 1,2006-11-08,1
ABC,QS,ABC-01-053,38,PRURPS,Pruritus Point Scale,PRURITUS ASSESSMENT,,1,1,1,,,2,WEEK 2,2006-11-22,15
ABC,QS,ABC-01-053,39,PRURPS,Pruritus Point Scale,PRURITUS ASSESSMENT,,1,1,1,,,4,WEEK 4,2006-12-12,35
ABC,QS,ABC-01-053,40,PSGA,PSGA Score,PSGA,,2,2,2,Y,,1,DAY 1,2006-11-08,1
ABC,QS,ABC-01-053,41,PSGA,PSGA Score,PSGA,,2,2,2,,,2,WEEK 2,2006-11-22,15
ABC,QS,ABC-01-053,42,PSGA,PSGA Score,PSGA,,2,2,2,,,4,WEEK 4,2006-12-12,35
ABC,QS,ABC-01-053,43,BODYAC,Body Area Code,PSI,PLAQUE 1,17,17,17,Y,,1,DAY 1,2006-11-08,1
ABC,QS,ABC-01-053,44,BODYAC,Body Area Code,PSI,PLAQUE 1,17,17,17,,,2,WEEK 2,2006-11-22,15
ABC,QS,ABC-01-053,45,BODYAC,Body Area Code,PSI,PLAQUE 1,17,17,17,,,4,WEEK 4,2006-12-12,35
ABC,QS,ABC-01-053,46,CPSS,CPSS,PSI,PLAQUE 1,6,6,6,Y,Y,1,DAY 1,2006-11-08,1
ABC,QS,ABC-01-053,47,CPSS,CPSS,PSI,PLAQUE 1,6,6,6,,Y,2,WEEK 2,2006-11-22,15
ABC,QS,ABC-01-053,48,CPSS,CPSS,PSI,PLAQUE 1,4,4,4,,Y,4,WEEK 4,2006-12-12,35
ABC,QS,ABC-01-053,49,ERYTHSS,Erythema Severity Score,PSI,PLAQUE 1,2,2,2,Y,,1,DAY 1,2006-11-08,1
ABC,QS,ABC-01-053,50,ERYTHSS,Erythema Severity Score,PSI,PLAQUE 1,2,2,2,,,2,WEEK 2,2006-11-22,15
ABC,QS,ABC-01-053,51,ERYTHSS,Erythema Severity Score,PSI,PLAQUE 1,1,1,1,,,4,WEEK 4,2006-12-12,35
ABC,QS,ABC-01-053,52,INDURSS,Induration Severity Score,PSI,PLAQUE 1,2,2,2,Y,,1,DAY 1,2006-11-08,1
ABC,QS,ABC-01-053,53,INDURSS,Induration Severity Score,PSI,PLAQUE 1,2,2,2,,,2,WEEK 2,2006-11-22,15
ABC,QS,ABC-01-053,54,INDURSS,Induration Severity Score,PSI,PLAQUE 1,2,2,2,,,4,WEEK 4,2006-12-12,35
ABC,QS,ABC-01-053,55,SCALSS,Scaling Severity Score,PSI,PLAQUE 1,2,2,2,Y,,1,DAY 1,2006-11-08,1
ABC,QS,ABC-01-053,56,SCALSS,Scaling Severity Score,PSI,PLAQUE 1,2,2,2,,,2,WEEK 2,2006-11-22,15
ABC,QS,ABC-01-053,57,SCALSS,Scaling Severity Score,PSI,PLAQUE 1,1,1,1,,,4,WEEK 4,2006-12-12,35
ABC,QS,ABC-01-053,58,BODYAC,Body Area Code,PSI,PLAQUE 2,10,10,10,Y,,1,DAY 1,2006-11-08,1
ABC,QS,ABC-01-053,59,BODYAC,Body Area Code,PSI,PLAQUE 2,10,10,10,,,2,WEEK 2,2006-11-22,15
ABC,QS,ABC-01-053,60,BODYAC,Body Area Code,PSI,PLAQUE 2,10,10,10,,,4,WEEK 4,2006-12-12,35
ABC,QS,ABC-01-053,61,CPSS,CPSS,PSI,PLAQUE 2,6,6,6,Y,Y,1,DAY 1,2006-11-08,1
ABC,QS,ABC-01-053,62,CPSS,CPSS,PSI,PLAQUE 2,6,6,6,,Y,2,WEEK 2,2006-11-22,15
ABC,QS,ABC-01-053,63,CPSS,CPSS,PSI,PLAQUE 2,5,5,5,,Y,4,WEEK 4,2006-12-12,35
ABC,QS,ABC-01-053,64,ERYTHSS,Erythema Severity Score,PSI,PLAQUE 2,2,2,2,Y,,1,DAY 1,2006-11-08,1
ABC,QS,ABC-01-053,65,ERYTHSS,Erythema Severity Score,PSI,PLAQUE 2,2,2,2,,,2,WEEK 2,2006-11-22,15
ABC,QS,ABC-01-053,66,ERYTHSS,Erythema Severity Score,PSI,PLAQUE 2,2,2,2,,,4,WEEK 4,2006-12-12,35
ABC,QS,ABC-01-053,67,INDURSS,Induration Severity Score,PSI,PLAQUE 2,2,2,2,Y,,1,DAY 1,2006-11-08,1
ABC,QS,ABC-01-053,68,INDURSS,Induration Severity Score,PSI,PLAQUE 2,2,2,2,,,2,WEEK 2,2006-11-22,15
ABC,QS,ABC-01-053,69,INDURSS,Induration Severity Score,PSI,PLAQUE 2,2,2,2,,,4,WEEK 4,2006-12-12,35
ABC,QS,ABC-01-053,70,SCALSS,Scaling Severity Score,PSI,PLAQUE 2,2,2,2,Y,,1,DAY 1,2006-11-08,1
ABC,QS,ABC-01-053,71,SCALSS,Scaling Severity Score,PSI,PLAQUE 2,2,2,2,,,2,WEEK 2,2006-11-22,15
ABC,QS,ABC-01-053,72,SCALSS,Scaling Severity Score,PSI,PLAQUE 2,1,1,1,,,4,WEEK 4,2006-12-12,35
ABC,QS,ABC-01-054,1,AREASCOR,Area Score (0-6),AAPASI,LOWER EXTREMITIES,1,1,1,Y,,1,DAY 1,2006-11-16,1
ABC,QS,ABC-01-054,2,AREASCOR,Area Score (0-6),AAPASI,LOWER EXTREMITIES,2,2,2,,,2,WEEK 2,2006-11-30,15
ABC,QS,ABC-01-054,3,AREASCOR,Area Score (0-6),AAPASI,LOWER EXTREMITIES,1,1,1,,,4,WEEK 4,2006-12-14,29
ABC,QS,ABC-01-054,4,AREASCOR,Area Score (0-6),AAPASI,LOWER EXTREMITIES,1,1,1,,,6,WEEK 6,2006-12-28,43
ABC,QS,ABC-01-054,5,AREASCOR,Area Score (0-6),AAPASI,LOWER EXTREMITIES,1,1,1,,,8,WEEK 8,2007-01-29,75
ABC,QS,ABC-01-054,6,AREASCOR,Area Score (0-6),AAPASI,LOWER EXTREMITIES,1,1,1,,,12,WEEK 12,2007-02-20,97
ABC,QS,ABC-01-054,7,AREASCOR,Area Score (0-6),AAPASI,LOWER EXTREMITIES,1,1,1,,,16,WEEK 16,2007-04-04,140
ABC,QS,ABC-01-054,8,ERYTHEMA,Erythema (0-4),AAPASI,LOWER EXTREMITIES,1,1,1,Y,,1,DAY 1,2006-11-16,1
ABC,QS,ABC-01-054,9,ERYTHEMA,Erythema (0-4),AAPASI,LOWER EXTREMITIES,3,3,3,,,2,WEEK 2,2006-11-30,15
ABC,QS,ABC-01-054,10,ERYTHEMA,Erythema (0-4),AAPASI,LOWER EXTREMITIES,2,2,2,,,4,WEEK 4,2006-12-14,29
ABC,QS,ABC-01-054,11,ERYTHEMA,Erythema (0-4),AAPASI,LOWER EXTREMITIES,3,3,3,,,6,WEEK 6,2006-12-28,43
ABC,QS,ABC-01-054,12,ERYTHEMA,Erythema (0-4),AAPASI,LOWER EXTREMITIES,3,3,3,,,8,WEEK 8,2007-01-29,75
ABC,QS,ABC-01-054,13,ERYTHEMA,Erythema (0-4),AAPASI,LOWER EXTREMITIES,3,3,3,,,12,WEEK 12,2007-02-20,97
ABC,QS,ABC-01-054,14,ERYTHEMA,Erythema (0-4),AAPASI,LOWER EXTREMITIES,3,3,3,,,16,WEEK 16,2007-04-04,140
ABC,QS,ABC-01-054,15,SCALE,Scale (0-4),AAPASI,LOWER EXTREMITIES,1,1,1,Y,,1,DAY 1,2006-11-16,1
ABC,QS,ABC-01-054,16,SCALE,Scale (0-4),AAPASI,LOWER EXTREMITIES,3,3,3,,,2,WEEK 2,2006-11-30,15
ABC,QS,ABC-01-054,17,SCALE,Scale (0-4),AAPASI,LOWER EXTREMITIES,3,3,3,,,4,WEEK 4,2006-12-14,29
ABC,QS,ABC-01-054,18,SCALE,Scale (0-4),AAPASI,LOWER EXTREMITIES,3,3,3,,,6,WEEK 6,2006-12-28,43
ABC,QS,ABC-01-054,19,SCALE,Scale (0-4),AAPASI,LOWER EXTREMITIES,3,3,3,,,8,WEEK 8,2007-01-29,75
ABC,QS,ABC-01-054,20,SCALE,Scale (0-4),AAPASI,LOWER EXTREMITIES,3,3,3,,,12,WEEK 12,2007-02-20,97
ABC,QS,ABC-01-054,21,SCALE,Scale (0-4),AAPASI,LOWER EXTREMITIES,3,3,3,,,16,WEEK 16,2007-04-04,140
ABC,QS,ABC-01-054,22,THCKNESS,Induration (0-4),AAPASI,LOWER EXTREMITIES,2,2,2,Y,,1,DAY 1,2006-11-16,1
ABC,QS,ABC-01-054,23,THCKNESS,Induration (0-4),AAPASI,LOWER EXTREMITIES,3,3,3,,,2,WEEK 2,2006-11-30,15
ABC,QS,ABC-01-054,24,THCKNESS,Induration (0-4),AAPASI,LOWER EXTREMITIES,3,3,3,,,4,WEEK 4,2006-12-14,29
ABC,QS,ABC-01-054,25,THCKNESS,Induration (0-4),AAPASI,LOWER EXTREMITIES,3,3,3,,,6,WEEK 6,2006-12-28,43
ABC,QS,ABC-01-054,26,THCKNESS,Induration (0-4),AAPASI,LOWER EXTREMITIES,3,3,3,,,8,WEEK 8,2007-01-29,75
ABC,QS,ABC-01-054,27,THCKNESS,Induration (0-4),AAPASI,LOWER EXTREMITIES,3,3,3,,,12,WEEK 12,2007-02-20,97
ABC,QS,ABC-01-054,28,THCKNESS,Induration (0-4),AAPASI,LOWER EXTREMITIES,3,3,3,,,16,WEEK 16,2007-04-04,140
ABC,QS,ABC-01-054,29,AREASCOR,Area Score (0-6),AAPASI,TRUNK,2,2,2,Y,,1,DAY 1,2006-11-16,1
ABC,QS,ABC-01-054,30,AREASCOR,Area Score (0-6),AAPASI,TRUNK,2,2,2,,,2,WEEK 2,2006-11-30,15
ABC,QS,ABC-01-054,31,AREASCOR,Area Score (0-6),AAPASI,TRUNK,2,2,2,,,4,WEEK 4,2006-12-14,29
ABC,QS,ABC-01-054,32,AREASCOR,Area Score (0-6),AAPASI,TRUNK,2,2,2,,,6,WEEK 6,2006-12-28,43
ABC,QS,ABC-01-054,33,AREASCOR,Area Score (0-6),AAPASI,TRUNK,2,2,2,,,8,WEEK 8,2007-01-29,75
ABC,QS,ABC-01-054,34,AREASCOR,Area Score (0-6),AAPASI,TRUNK,2,2,2,,,12,WEEK 12,2007-02-20,97
ABC,QS,ABC-01-054,35,AREASCOR,Area Score (0-6),AAPASI,TRUNK,2,2,2,,,16,WEEK 16,2007-04-04,140
ABC,QS,ABC-01-054,36,ERYTHEMA,Erythema (0-4),AAPASI,TRUNK,3,3,3,Y,,1,DAY 1,2006-11-16,1
ABC,QS,ABC-01-054,37,ERYTHEMA,Erythema (0-4),AAPASI,TRUNK,3,3,3,,,2,WEEK 2,2006-11-30,15
ABC,QS,ABC-01-054,38,ERYTHEMA,Erythema (0-4),AAPASI,TRUNK,3,3,3,,,4,WEEK 4,2006-12-14,29
ABC,QS,ABC-01-054,39,ERYTHEMA,Erythema (0-4),AAPASI,TRUNK,3,3,3,,,6,WEEK 6,2006-12-28,43
ABC,QS,ABC-01-054,40,ERYTHEMA,Erythema (0-4),AAPASI,TRUNK,3,3,3,,,8,WEEK 8,2007-01-29,75
ABC,QS,ABC-01-054,41,ERYTHEMA,Erythema (0-4),AAPASI,TRUNK,3,3,3,,,12,WEEK 12,2007-02-20,97
ABC,QS,ABC-01-054,42,ERYTHEMA,Erythema (0-4),AAPASI,TRUNK,3,3,3,,,16,WEEK 16,2007-04-04,140
ABC,QS,ABC-01-054,43,SCALE,Scale (0-4),AAPASI,TRUNK,3,3,3,Y,,1,DAY 1,2006-11-16,1
ABC,QS,ABC-01-054,44,SCALE,Scale (0-4),AAPASI,TRUNK,3,3,3,,,2,WEEK 2,2006-11-30,15
ABC,QS,ABC-01-054,45,SCALE,Scale (0-4),AAPASI,TRUNK,3,3,3,,,4,WEEK 4,2006-12-14,29
ABC,QS,ABC-01-054,46,SCALE,Scale (0-4),AAPASI,TRUNK,3,3,3,,,6,WEEK 6,2006-12-28,43
ABC,QS,ABC-01-054,47,SCALE,Scale (0-4),AAPASI,TRUNK,3,3,3,,,8,WEEK 8,2007-01-29,75
ABC,QS,ABC-01-054,48,SCALE,Scale (0-4),AAPASI,TRUNK,3,3,3,,,12,WEEK 12,2007-02-20,97
ABC,QS,ABC-01-054,49,SCALE,Scale (0-4),AAPASI,TRUNK,3,3,3,,,16,WEEK 16,2007-04-04,140
ABC,QS,ABC-01-054,50,THCKNESS,Induration (0-4),AAPASI,TRUNK,3,3,3,Y,,1,DAY 1,2006-11-16,1
ABC,QS,ABC-01-054,51,THCKNESS,Induration (0-4),AAPASI,TRUNK,3,3,3,,,2,WEEK 2,2006-11-30,15
ABC,QS,ABC-01-054,52,THCKNESS,Induration (0-4),AAPASI,TRUNK,3,3,3,,,4,WEEK 4,2006-12-14,29
ABC,QS,ABC-01-054,53,THCKNESS,Induration (0-4),AAPASI,TRUNK,3,3,3,,,6,WEEK 6,2006-12-28,43
ABC,QS,ABC-01-054,54,THCKNESS,Induration (0-4),AAPASI,TRUNK,3,3,3,,,8,WEEK 8,2007-01-29,75
ABC,QS,ABC-01-054,55,THCKNESS,Induration (0-4),AAPASI,TRUNK,3,3,3,,,12,WEEK 12,2007-02-20,97
ABC,QS,ABC-01-054,56,THCKNESS,Induration (0-4),AAPASI,TRUNK,3,3,3,,,16,WEEK 16,2007-04-04,140
ABC,QS,ABC-01-054,57,AREASCOR,Area Score (0-6),AAPASI,UPPER EXTREMITIES,0,0,0,Y,,1,DAY 1,2006-11-16,1
ABC,QS,ABC-01-054,58,AREASCOR,Area Score (0-6),AAPASI,UPPER EXTREMITIES,1,1,1,,,2,WEEK 2,2006-11-30,15
ABC,QS,ABC-01-054,59,AREASCOR,Area Score (0-6),AAPASI,UPPER EXTREMITIES,0,0,0,,,4,WEEK 4,2006-12-14,29
ABC,QS,ABC-01-054,60,AREASCOR,Area Score (0-6),AAPASI,UPPER EXTREMITIES,0,0,0,,,6,WEEK 6,2006-12-28,43
ABC,QS,ABC-01-054,61,AREASCOR,Area Score (0-6),AAPASI,UPPER EXTREMITIES,0,0,0,,,8,WEEK 8,2007-01-29,75
ABC,QS,ABC-01-054,62,AREASCOR,Area Score (0-6),AAPASI,UPPER EXTREMITIES,0,0,0,,,12,WEEK 12,2007-02-20,97
ABC,QS,ABC-01-054,63,AREASCOR,Area Score (0-6),AAPASI,UPPER EXTREMITIES,0,0,0,,,16,WEEK 16,2007-04-04,140
ABC,QS,ABC-01-054,64,ERYTHEMA,Erythema (0-4),AAPASI,UPPER EXTREMITIES,0,0,0,Y,,1,DAY 1,2006-11-16,1
ABC,QS,ABC-01-054,65,ERYTHEMA,Erythema (0-4),AAPASI,UPPER EXTREMITIES,3,3,3,,,2,WEEK 2,2006-11-30,15
ABC,QS,ABC-01-054,66,ERYTHEMA,Erythema (0-4),AAPASI,UPPER EXTREMITIES,0,0,0,,,4,WEEK 4,2006-12-14,29
ABC,QS,ABC-01-054,67,ERYTHEMA,Erythema (0-4),AAPASI,UPPER EXTREMITIES,0,0,0,,,6,WEEK 6,2006-12-28,43
ABC,QS,ABC-01-054,68,ERYTHEMA,Erythema (0-4),AAPASI,UPPER EXTREMITIES,0,0,0,,,8,WEEK 8,2007-01-29,75
ABC,QS,ABC-01-054,69,ERYTHEMA,Erythema (0-4),AAPASI,UPPER EXTREMITIES,0,0,0,,,12,WEEK 12,2007-02-20,97
ABC,QS,ABC-01-054,70,ERYTHEMA,Erythema (0-4),AAPASI,UPPER EXTREMITIES,0,0,0,,,16,WEEK 16,2007-04-04,140
ABC,QS,ABC-01-054,71,SCALE,Scale (0-4),AAPASI,UPPER EXTREMITIES,0,0,0,Y,,1,DAY 1,2006-11-16,1
ABC,QS,ABC-01-054,72,SCALE,Scale (0-4),AAPASI,UPPER EXTREMITIES,3,3,3,,,2,WEEK 2,2006-11-30,15
ABC,QS,ABC-01-054,73,SCALE,Scale (0-4),AAPASI,UPPER EXTREMITIES,0,0,0,,,4,WEEK 4,2006-12-14,29
ABC,QS,ABC-01-054,74,SCALE,Scale (0-4),AAPASI,UPPER EXTREMITIES,0,0,0,,,6,WEEK 6,2006-12-28,43
ABC,QS,ABC-01-054,75,SCALE,Scale (0-4),AAPASI,UPPER EXTREMITIES,0,0,0,,,8,WEEK 8,2007-01-29,75
ABC,QS,ABC-01-054,76,SCALE,Scale (0-4),AAPASI,UPPER EXTREMITIES,0,0,0,,,12,WEEK 12,2007-02-20,97
ABC,QS,ABC-01-054,77,SCALE,Scale (0-4),AAPASI,UPPER EXTREMITIES,0,0,0,,,16,WEEK 16,2007-04-04,140
ABC,QS,ABC-01-054,78,THCKNESS,Induration (0-4),AAPASI,UPPER EXTREMITIES,0,0,0,Y,,1,DAY 1,2006-11-16,1
ABC,QS,ABC-01-054,79,THCKNESS,Induration (0-4),AAPASI,UPPER EXTREMITIES,3,3,3,,,2,WEEK 2,2006-11-30,15
ABC,QS,ABC-01-054,80,THCKNESS,Induration (0-4),AAPASI,UPPER EXTREMITIES,0,0,0,,,4,WEEK 4,2006-12-14,29
ABC,QS,ABC-01-054,81,THCKNESS,Induration (0-4),AAPASI,UPPER EXTREMITIES,0,0,0,,,6,WEEK 6,2006-12-28,43
ABC,QS,ABC-01-054,82,THCKNESS,Induration (0-4),AAPASI,UPPER EXTREMITIES,0,0,0,,,8,WEEK 8,2007-01-29,75
ABC,QS,ABC-01-054,83,THCKNESS,Induration (0-4),AAPASI,UPPER EXTREMITIES,0,0,0,,,12,WEEK 12,2007-02-20,97
ABC,QS,ABC-01-054,84,THCKNESS,Induration (0-4),AAPASI,UPPER EXTREMITIES,0,0,0,,,16,WEEK 16,2007-04-04,140
ABC,QS,ABC-01-054,85,PRURPS,Pruritus Point Scale,PRURITUS ASSESSMENT,,2,2,2,Y,,1,DAY 1,2006-11-16,1
ABC,QS,ABC-01-054,86,PRURPS,Pruritus Point Scale,PRURITUS ASSESSMENT,,2,2,2,,,2,WEEK 2,2006-11-30,15
ABC,QS,ABC-01-054,87,PRURPS,Pruritus Point Scale,PRURITUS ASSESSMENT,,2,2,2,,,4,WEEK 4,2006-12-14,29
ABC,QS,ABC-01-054,88,PRURPS,Pruritus Point Scale,PRURITUS ASSESSMENT,,3,3,3,,,6,WEEK 6,2006-12-28,43
ABC,QS,ABC-01-054,89,PRURPS,Pruritus Point Scale,PRURITUS ASSESSMENT,,2,2,2,,,8,WEEK 8,2007-01-29,75
ABC,QS,ABC-01-054,90,PRURPS,Pruritus Point Scale,PRURITUS ASSESSMENT,,2,2,2,,,12,WEEK 12,2007-02-20,97
ABC,QS,ABC-01-054,91,PRURPS,Pruritus Point Scale,PRURITUS ASSESSMENT,,2,2,2,,,16,WEEK 16,2007-04-04,140
ABC,QS,ABC-01-054,92,PSGA,PSGA Score,PSGA,,3,3,3,Y,,1,DAY 1,2006-11-16,1
ABC,QS,ABC-01-054,93,PSGA,PSGA Score,PSGA,,3,3,3,,,2,WEEK 2,2006-11-30,15
ABC,QS,ABC-01-054,94,PSGA,PSGA Score,PSGA,,3,3,3,,,4,WEEK 4,2006-12-14,29
ABC,QS,ABC-01-054,95,PSGA,PSGA Score,PSGA,,3,3,3,,,6,WEEK 6,2006-12-28,43
ABC,QS,ABC-01-054,96,PSGA,PSGA Score,PSGA,,3,3,3,,,8,WEEK 8,2007-01-29,75
ABC,QS,ABC-01-054,97,PSGA,PSGA Score,PSGA,,3,3,3,,,12,WEEK 12,2007-02-20,97
ABC,QS,ABC-01-054,98,PSGA,PSGA Score,PSGA,,3,3,3,,,16,WEEK 16,2007-04-04,140
ABC,QS,ABC-01-054,99,BODYAC,Body Area Code,PSI,PLAQUE 1,20,20,20,Y,,1,DAY 1,2006-11-16,1
ABC,QS,ABC-01-054,100,BODYAC,Body Area Code,PSI,PLAQUE 1,20,20,20,,,2,WEEK 2,2006-11-30,15
ABC,QS,ABC-01-054,101,BODYAC,Body Area Code,PSI,PLAQUE 1,20,20,20,,,4,WEEK 4,2006-12-14,29
ABC,QS,ABC-01-054,102,BODYAC,Body Area Code,PSI,PLAQUE 1,20,20,20,,,6,WEEK 6,2006-12-28,43
ABC,QS,ABC-01-054,103,BODYAC,Body Area Code,PSI,PLAQUE 1,20,20,20,,,8,WEEK 8,2007-01-29,75
ABC,QS,ABC-01-054,104,BODYAC,Body Area Code,PSI,PLAQUE 1,20,20,20,,,12,WEEK 12,2007-02-20,97
ABC,QS,ABC-01-054,105,BODYAC,Body Area Code,PSI,PLAQUE 1,20,20,20,,,16,WEEK 16,2007-04-04,140
ABC,QS,ABC-01-054,106,CPSS,CPSS,PSI,PLAQUE 1,9,9,9,Y,Y,1,DAY 1,2006-11-16,1
ABC,QS,ABC-01-054,107,CPSS,CPSS,PSI,PLAQUE 1,9,9,9,,Y,2,WEEK 2,2006-11-30,15
ABC,QS,ABC-01-054,108,CPSS,CPSS,PSI,PLAQUE 1,9,9,9,,Y,4,WEEK 4,2006-12-14,29
ABC,QS,ABC-01-054,109,CPSS,CPSS,PSI,PLAQUE 1,9,9,9,,Y,6,WEEK 6,2006-12-28,43
ABC,QS,ABC-01-054,110,CPSS,CPSS,PSI,PLAQUE 1,8,8,8,,Y,8,WEEK 8,2007-01-29,75
ABC,QS,ABC-01-054,111,CPSS,CPSS,PSI,PLAQUE 1,8,8,8,,Y,12,WEEK 12,2007-02-20,97
ABC,QS,ABC-01-054,112,CPSS,CPSS,PSI,PLAQUE 1,8,8,8,,Y,16,WEEK 16,2007-04-04,140
ABC,QS,ABC-01-054,113,ERYTHSS,Erythema Severity Score,PSI,PLAQUE 1,2,2,2,Y,,1,DAY 1,2006-11-16,1
ABC,QS,ABC-01-054,114,ERYTHSS,Erythema Severity Score,PSI,PLAQUE 1,3,3,3,,,2,WEEK 2,2006-11-30,15
ABC,QS,ABC-01-054,115,ERYTHSS,Erythema Severity Score,PSI,PLAQUE 1,3,3,3,,,4,WEEK 4,2006-12-14,29
ABC,QS,ABC-01-054,116,ERYTHSS,Erythema Severity Score,PSI,PLAQUE 1,3,3,3,,,6,WEEK 6,2006-12-28,43
ABC,QS,ABC-01-054,117,ERYTHSS,Erythema Severity Score,PSI,PLAQUE 1,3,3,3,,,8,WEEK 8,2007-01-29,75
ABC,QS,ABC-01-054,118,ERYTHSS,Erythema Severity Score,PSI,PLAQUE 1,3,3,3,,,12,WEEK 12,2007-02-20,97
ABC,QS,ABC-01-054,119,ERYTHSS,Erythema Severity Score,PSI,PLAQUE 1,3,3,3,,,16,WEEK 16,2007-04-04,140
ABC,QS,ABC-01-054,120,INDURSS,Induration Severity Score,PSI,PLAQUE 1,3,3,3,Y,,1,DAY 1,2006-11-16,1
ABC,QS,ABC-01-054,121,INDURSS,Induration Severity Score,PSI,PLAQUE 1,3,3,3,,,2,WEEK 2,2006-11-30,15
ABC,QS,ABC-01-054,122,INDURSS,Induration Severity Score,PSI,PLAQUE 1,3,3,3,,,4,WEEK 4,2006-12-14,29
ABC,QS,ABC-01-054,123,INDURSS,Induration Severity Score,PSI,PLAQUE 1,3,3,3,,,6,WEEK 6,2006-12-28,43
ABC,QS,ABC-01-054,124,INDURSS,Induration Severity Score,PSI,PLAQUE 1,3,3,3,,,8,WEEK 8,2007-01-29,75
ABC,QS,ABC-01-054,125,INDURSS,Induration Severity Score,PSI,PLAQUE 1,3,3,3,,,12,WEEK 12,2007-02-20,97
ABC,QS,ABC-01-054,126,INDURSS,Induration Severity Score,PSI,PLAQUE 1,3,3,3,,,16,WEEK 16,2007-04-04,140
ABC,QS,ABC-01-054,127,SCALSS,Scaling Severity Score,PSI,PLAQUE 1,4,4,4,Y,,1,DAY 1,2006-11-16,1
ABC,QS,ABC-01-054,128,SCALSS,Scaling Severity Score,PSI,PLAQUE 1,3,3,3,,,2,WEEK 2,2006-11-30,15
ABC,QS,ABC-01-054,129,SCALSS,Scaling Severity Score,PSI,PLAQUE 1,3,3,3,,,4,WEEK 4,2006-12-14,29
ABC,QS,ABC-01-054,130,SCALSS,Scaling Severity Score,PSI,PLAQUE 1,3,3,3,,,6,WEEK 6,2006-12-28,43
ABC,QS,ABC-01-054,131,SCALSS,Scaling Severity Score,PSI,PLAQUE 1,2,2,2,,,8,WEEK 8,2007-01-29,75
ABC,QS,ABC-01-054,132,SCALSS,Scaling Severity Score,PSI,PLAQUE 1,2,2,2,,,12,WEEK 12,2007-02-20,97
ABC,QS,ABC-01-054,133,SCALSS,Scaling Severity Score,PSI,PLAQUE 1,2,2,2,,,16,WEEK 16,2007-04-04,140
ABC,QS,ABC-01-054,134,BODYAC,Body Area Code,PSI,PLAQUE 2,12,12,12,Y,,1,DAY 1,2006-11-16,1
ABC,QS,ABC-01-054,135,BODYAC,Body Area Code,PSI,PLAQUE 2,12,12,12,,,2,WEEK 2,2006-11-30,15
ABC,QS,ABC-01-054,136,BODYAC,Body Area Code,PSI,PLAQUE 2,12,12,12,,,4,WEEK 4,2006-12-14,29
ABC,QS,ABC-01-054,137,BODYAC,Body Area Code,PSI,PLAQUE 2,12,12,12,,,6,WEEK 6,2006-12-28,43
ABC,QS,ABC-01-054,138,BODYAC,Body Area Code,PSI,PLAQUE 2,12,12,12,,,8,WEEK 8,2007-01-29,75
ABC,QS,ABC-01-054,139,BODYAC,Body Area Code,PSI,PLAQUE 2,12,12,12,,,12,WEEK 12,2007-02-20,97
ABC,QS,ABC-01-054,140,BODYAC,Body Area Code,PSI,PLAQUE 2,12,12,12,,,16,WEEK 16,2007-04-04,140
ABC,QS,ABC-01-054,141,CPSS,CPSS,PSI,PLAQUE 2,6,6,6,Y,Y,1,DAY 1,2006-11-16,1
ABC,QS,ABC-01-054,142,CPSS,CPSS,PSI,PLAQUE 2,9,9,9,,Y,2,WEEK 2,2006-11-30,15
ABC,QS,ABC-01-054,143,CPSS,CPSS,PSI,PLAQUE 2,8,8,8,,Y,4,WEEK 4,2006-12-14,29
ABC,QS,ABC-01-054,144,CPSS,CPSS,PSI,PLAQUE 2,9,9,9,,Y,6,WEEK 6,2006-12-28,43
ABC,QS,ABC-01-054,145,CPSS,CPSS,PSI,PLAQUE 2,8,8,8,,Y,8,WEEK 8,2007-01-29,75
ABC,QS,ABC-01-054,146,CPSS,CPSS,PSI,PLAQUE 2,8,8,8,,Y,12,WEEK 12,2007-02-20,97
ABC,QS,ABC-01-054,147,CPSS,CPSS,PSI,PLAQUE 2,8,8,8,,Y,16,WEEK 16,2007-04-04,140
ABC,QS,ABC-01-054,148,ERYTHSS,Erythema Severity Score,PSI,PLAQUE 2,3,3,3,Y,,1,DAY 1,2006-11-16,1
ABC,QS,ABC-01-054,149,ERYTHSS,Erythema Severity Score,PSI,PLAQUE 2,3,3,3,,,2,WEEK 2,2006-11-30,15
ABC,QS,ABC-01-054,150,ERYTHSS,Erythema Severity Score,PSI,PLAQUE 2,2,2,2,,,4,WEEK 4,2006-12-14,29
ABC,QS,ABC-01-054,151,ERYTHSS,Erythema Severity Score,PSI,PLAQUE 2,3,3,3,,,6,WEEK 6,2006-12-28,43
ABC,QS,ABC-01-054,152,ERYTHSS,Erythema Severity Score,PSI,PLAQUE 2,3,3,3,,,8,WEEK 8,2007-01-29,75
ABC,QS,ABC-01-054,153,ERYTHSS,Erythema Severity Score,PSI,PLAQUE 2,3,3,3,,,12,WEEK 12,2007-02-20,97
ABC,QS,ABC-01-054,154,ERYTHSS,Erythema Severity Score,PSI,PLAQUE 2,3,3,3,,,16,WEEK 16,2007-04-04,140
ABC,QS,ABC-01-054,155,INDURSS,Induration Severity Score,PSI,PLAQUE 2,2,2,2,Y,,1,DAY 1,2006-11-16,1
ABC,QS,ABC-01-054,156,INDURSS,Induration Severity Score,PSI,PLAQUE 2,3,3,3,,,2,WEEK 2,2006-11-30,15
ABC,QS,ABC-01-054,157,INDURSS,Induration Severity Score,PSI,PLAQUE 2,3,3,3,,,4,WEEK 4,2006-12-14,29
ABC,QS,ABC-01-054,158,INDURSS,Induration Severity Score,PSI,PLAQUE 2,3,3,3,,,6,WEEK 6,2006-12-28,43
ABC,QS,ABC-01-054,159,INDURSS,Induration Severity Score,PSI,PLAQUE 2,3,3,3,,,8,WEEK 8,2007-01-29,75
ABC,QS,ABC-01-054,160,INDURSS,Induration Severity Score,PSI,PLAQUE 2,3,3,3,,,12,WEEK 12,2007-02-20,97
ABC,QS,ABC-01-054,161,INDURSS,Induration Severity Score,PSI,PLAQUE 2,3,3,3,,,16,WEEK 16,2007-04-04,140
ABC,QS,ABC-01-054,162,SCALSS,Scaling Severity Score,PSI,PLAQUE 2,1,1,1,Y,,1,DAY 1,2006-11-16,1
ABC,QS,ABC-01-054,163,SCALSS,Scaling Severity Score,PSI,PLAQUE 2,3,3,3,,,2,WEEK 2,2006-11-30,15
ABC,QS,ABC-01-054,164,SCALSS,Scaling Severity Score,PSI,PLAQUE 2,3,3,3,,,4,WEEK 4,2006-12-14,29
ABC,QS,ABC-01-054,165,SCALSS,Scaling Severity Score,PSI,PLAQUE 2,3,3,3,,,6,WEEK 6,2006-12-28,43
ABC,QS,ABC-01-054,166,SCALSS,Scaling Severity Score,PSI,PLAQUE 2,2,2,2,,,8,WEEK 8,2007-01-29,75
ABC,QS,ABC-01-054,167,SCALSS,Scaling Severity Score,PSI,PLAQUE 2,2,2,2,,,12,WEEK 12,2007-02-20,97
ABC,QS,ABC-01-054,168,SCALSS,Scaling Severity Score,PSI,PLAQUE 2,2,2,2,,,16,WEEK 16,2007-04-04,140
ABC,QS,ABC-01-055,1,AREASCOR,Area Score (0-6),AAPASI,LOWER EXTREMITIES,1,1,1,Y,,1,DAY 1,2006-11-21,-15
ABC,QS,ABC-01-055,2,AREASCOR,Area Score (0-6),AAPASI,LOWER EXTREMITIES,1,1,1,,,2,WEEK 2,2006-12-18,13
ABC,QS,ABC-01-055,3,AREASCOR,Area Score (0-6),AAPASI,LOWER EXTREMITIES,1,1,1,,,4,WEEK 4,2007-01-03,29
ABC,QS,ABC-01-055,4,AREASCOR,Area Score (0-6),AAPASI,LOWER EXTREMITIES,0,0,0,,,6,WEEK 6,2007-01-23,49
ABC,QS,ABC-01-055,5,AREASCOR,Area Score (0-6),AAPASI,LOWER EXTREMITIES,0,0,0,,,8,WEEK 8,2007-02-09,66
ABC,QS,ABC-01-055,6,AREASCOR,Area Score (0-6),AAPASI,LOWER EXTREMITIES,0,0,0,,,12,WEEK 12,2007-03-28,113
ABC,QS,ABC-01-055,7,AREASCOR,Area Score (0-6),AAPASI,LOWER EXTREMITIES,0,0,0,,,16,WEEK 16,2007-04-23,139
ABC,QS,ABC-01-055,8,ERYTHEMA,Erythema (0-4),AAPASI,LOWER EXTREMITIES,1,1,1,Y,,1,DAY 1,2006-11-21,-15
ABC,QS,ABC-01-055,9,ERYTHEMA,Erythema (0-4),AAPASI,LOWER EXTREMITIES,1,1,1,,,2,WEEK 2,2006-12-18,13
ABC,QS,ABC-01-055,10,ERYTHEMA,Erythema (0-4),AAPASI,LOWER EXTREMITIES,1,1,1,,,4,WEEK 4,2007-01-03,29
ABC,QS,ABC-01-055,11,ERYTHEMA,Erythema (0-4),AAPASI,LOWER EXTREMITIES,0,0,0,,,6,WEEK 6,2007-01-23,49
ABC,QS,ABC-01-055,12,ERYTHEMA,Erythema (0-4),AAPASI,LOWER EXTREMITIES,0,0,0,,,8,WEEK 8,2007-02-09,66
ABC,QS,ABC-01-055,13,ERYTHEMA,Erythema (0-4),AAPASI,LOWER EXTREMITIES,0,0,0,,,12,WEEK 12,2007-03-28,113
ABC,QS,ABC-01-055,14,ERYTHEMA,Erythema (0-4),AAPASI,LOWER EXTREMITIES,0,0,0,,,16,WEEK 16,2007-04-23,139
ABC,QS,ABC-01-055,15,SCALE,Scale (0-4),AAPASI,LOWER EXTREMITIES,1,1,1,Y,,1,DAY 1,2006-11-21,-15
ABC,QS,ABC-01-055,16,SCALE,Scale (0-4),AAPASI,LOWER EXTREMITIES,1,1,1,,,2,WEEK 2,2006-12-18,13
ABC,QS,ABC-01-055,17,SCALE,Scale (0-4),AAPASI,LOWER EXTREMITIES,0,0,0,,,4,WEEK 4,2007-01-03,29
ABC,QS,ABC-01-055,18,SCALE,Scale (0-4),AAPASI,LOWER EXTREMITIES,0,0,0,,,6,WEEK 6,2007-01-23,49
ABC,QS,ABC-01-055,19,SCALE,Scale (0-4),AAPASI,LOWER EXTREMITIES,0,0,0,,,8,WEEK 8,2007-02-09,66
ABC,QS,ABC-01-055,20,SCALE,Scale (0-4),AAPASI,LOWER EXTREMITIES,0,0,0,,,12,WEEK 12,2007-03-28,113
ABC,QS,ABC-01-055,21,SCALE,Scale (0-4),AAPASI,LOWER EXTREMITIES,0,0,0,,,16,WEEK 16,2007-04-23,139
ABC,QS,ABC-01-055,22,THCKNESS,Induration (0-4),AAPASI,LOWER EXTREMITIES,1,1,1,Y,,1,DAY 1,2006-11-21,-15
ABC,QS,ABC-01-055,23,THCKNESS,Induration (0-4),AAPASI,LOWER EXTREMITIES,1,1,1,,,2,WEEK 2,2006-12-18,13
ABC,QS,ABC-01-055,24,THCKNESS,Induration (0-4),AAPASI,LOWER EXTREMITIES,0,0,0,,,4,WEEK 4,2007-01-03,29
ABC,QS,ABC-01-055,25,THCKNESS,Induration (0-4),AAPASI,LOWER EXTREMITIES,0,0,0,,,6,WEEK 6,2007-01-23,49
ABC,QS,ABC-01-055,26,THCKNESS,Induration (0-4),AAPASI,LOWER EXTREMITIES,0,0,0,,,8,WEEK 8,2007-02-09,66
ABC,QS,ABC-01-055,27,THCKNESS,Induration (0-4),AAPASI,LOWER EXTREMITIES,0,0,0,,,12,WEEK 12,2007-03-28,113
ABC,QS,ABC-01-055,28,THCKNESS,Induration (0-4),AAPASI,LOWER EXTREMITIES,0,0,0,,,16,WEEK 16,2007-04-23,139
ABC,QS,ABC-01-055,29,AREASCOR,Area Score (0-6),AAPASI,TRUNK,2,2,2,Y,,1,DAY 1,2006-11-21,-15
ABC,QS,ABC-01-055,30,AREASCOR,Area Score (0-6),AAPASI,TRUNK,2,2,2,,,2,WEEK 2,2006-12-18,13
ABC,QS,ABC-01-055,31,AREASCOR,Area Score (0-6),AAPASI,TRUNK,2,2,2,,,4,WEEK 4,2007-01-03,29
ABC,QS,ABC-01-055,32,AREASCOR,Area Score (0-6),AAPASI,TRUNK,1,1,1,,,6,WEEK 6,2007-01-23,49
ABC,QS,ABC-01-055,33,AREASCOR,Area Score (0-6),AAPASI,TRUNK,1,1,1,,,8,WEEK 8,2007-02-09,66
ABC,QS,ABC-01-055,34,AREASCOR,Area Score (0-6),AAPASI,TRUNK,1,1,1,,,12,WEEK 12,2007-03-28,113
ABC,QS,ABC-01-055,35,AREASCOR,Area Score (0-6),AAPASI,TRUNK,1,1,1,,,16,WEEK 16,2007-04-23,139
ABC,QS,ABC-01-055,36,ERYTHEMA,Erythema (0-4),AAPASI,TRUNK,2,2,2,Y,,1,DAY 1,2006-11-21,-15
ABC,QS,ABC-01-055,37,ERYTHEMA,Erythema (0-4),AAPASI,TRUNK,1,1,1,,,2,WEEK 2,2006-12-18,13
ABC,QS,ABC-01-055,38,ERYTHEMA,Erythema (0-4),AAPASI,TRUNK,2,2,2,,,4,WEEK 4,2007-01-03,29
ABC,QS,ABC-01-055,39,ERYTHEMA,Erythema (0-4),AAPASI,TRUNK,2,2,2,,,6,WEEK 6,2007-01-23,49
ABC,QS,ABC-01-055,40,ERYTHEMA,Erythema (0-4),AAPASI,TRUNK,0,0,0,,,8,WEEK 8,2007-02-09,66
ABC,QS,ABC-01-055,41,ERYTHEMA,Erythema (0-4),AAPASI,TRUNK,1,1,1,,,12,WEEK 12,2007-03-28,113
ABC,QS,ABC-01-055,42,ERYTHEMA,Erythema (0-4),AAPASI,TRUNK,0,0,0,,,16,WEEK 16,2007-04-23,139
ABC,QS,ABC-01-055,43,SCALE,Scale (0-4),AAPASI,TRUNK,2,2,2,Y,,1,DAY 1,2006-11-21,-15
ABC,QS,ABC-01-055,44,SCALE,Scale (0-4),AAPASI,TRUNK,1,1,1,,,2,WEEK 2,2006-12-18,13
ABC,QS,ABC-01-055,45,SCALE,Scale (0-4),AAPASI,TRUNK,1,1,1,,,4,WEEK 4,2007-01-03,29
ABC,QS,ABC-01-055,46,SCALE,Scale (0-4),AAPASI,TRUNK,1,1,1,,,6,WEEK 6,2007-01-23,49
ABC,QS,ABC-01-055,47,SCALE,Scale (0-4),AAPASI,TRUNK,1,1,1,,,8,WEEK 8,2007-02-09,66
ABC,QS,ABC-01-055,48,SCALE,Scale (0-4),AAPASI,TRUNK,1,1,1,,,12,WEEK 12,2007-03-28,113
ABC,QS,ABC-01-055,49,SCALE,Scale (0-4),AAPASI,TRUNK,1,1,1,,,16,WEEK 16,2007-04-23,139
ABC,QS,ABC-01-055,50,THCKNESS,Induration (0-4),AAPASI,TRUNK,2,2,2,Y,,1,DAY 1,2006-11-21,-15
ABC,QS,ABC-01-055,51,THCKNESS,Induration (0-4),AAPASI,TRUNK,1,1,1,,,2,WEEK 2,2006-12-18,13
ABC,QS,ABC-01-055,52,THCKNESS,Induration (0-4),AAPASI,TRUNK,1,1,1,,,4,WEEK 4,2007-01-03,29
ABC,QS,ABC-01-055,53,THCKNESS,Induration (0-4),AAPASI,TRUNK,1,1,1,,,6,WEEK 6,2007-01-23,49
ABC,QS,ABC-01-055,54,THCKNESS,Induration (0-4),AAPASI,TRUNK,0,0,0,,,8,WEEK 8,2007-02-09,66
ABC,QS,ABC-01-055,55,THCKNESS,Induration (0-4),AAPASI,TRUNK,0,0,0,,,12,WEEK 12,2007-03-28,113
ABC,QS,ABC-01-055,56,THCKNESS,Induration (0-4),AAPASI,TRUNK,1,1,1,,,16,WEEK 16,2007-04-23,139
ABC,QS,ABC-01-055,57,AREASCOR,Area Score (0-6),AAPASI,UPPER EXTREMITIES,1,1,1,Y,,1,DAY 1,2006-11-21,-15
ABC,QS,ABC-01-055,58,AREASCOR,Area Score (0-6),AAPASI,UPPER EXTREMITIES,1,1,1,,,2,WEEK 2,2006-12-18,13
ABC,QS,ABC-01-055,59,AREASCOR,Area Score (0-6),AAPASI,UPPER EXTREMITIES,1,1,1,,,4,WEEK 4,2007-01-03,29
ABC,QS,ABC-01-055,60,AREASCOR,Area Score (0-6),AAPASI,UPPER EXTREMITIES,2,2,2,,,6,WEEK 6,2007-01-23,49
ABC,QS,ABC-01-055,61,AREASCOR,Area Score (0-6),AAPASI,UPPER EXTREMITIES,0,0,0,,,8,WEEK 8,2007-02-09,66
ABC,QS,ABC-01-055,62,AREASCOR,Area Score (0-6),AAPASI,UPPER EXTREMITIES,1,1,1,,,12,WEEK 12,2007-03-28,113
ABC,QS,ABC-01-055,63,AREASCOR,Area Score (0-6),AAPASI,UPPER EXTREMITIES,0,0,0,,,16,WEEK 16,2007-04-23,139
ABC,QS,ABC-01-055,64,ERYTHEMA,Erythema (0-4),AAPASI,UPPER EXTREMITIES,1,1,1,Y,,1,DAY 1,2006-11-21,-15
ABC,QS,ABC-01-055,65,ERYTHEMA,Erythema (0-4),AAPASI,UPPER EXTREMITIES,1,1,1,,,2,WEEK 2,2006-12-18,13
ABC,QS,ABC-01-055,66,ERYTHEMA,Erythema (0-4),AAPASI,UPPER EXTREMITIES,1,1,1,,,4,WEEK 4,2007-01-03,29
ABC,QS,ABC-01-055,67,ERYTHEMA,Erythema (0-4),AAPASI,UPPER EXTREMITIES,1,1,1,,,6,WEEK 6,2007-01-23,49
ABC,QS,ABC-01-055,68,ERYTHEMA,Erythema (0-4),AAPASI,UPPER EXTREMITIES,0,0,0,,,8,WEEK 8,2007-02-09,66
ABC,QS,ABC-01-055,69,ERYTHEMA,Erythema (0-4),AAPASI,UPPER EXTREMITIES,1,1,1,,,12,WEEK 12,2007-03-28,113
ABC,QS,ABC-01-055,70,ERYTHEMA,Erythema (0-4),AAPASI,UPPER EXTREMITIES,0,0,0,,,16,WEEK 16,2007-04-23,139
ABC,QS,ABC-01-055,71,SCALE,Scale (0-4),AAPASI,UPPER EXTREMITIES,1,1,1,Y,,1,DAY 1,2006-11-21,-15
ABC,QS,ABC-01-055,72,SCALE,Scale (0-4),AAPASI,UPPER EXTREMITIES,1,1,1,,,2,WEEK 2,2006-12-18,13
ABC,QS,ABC-01-055,73,SCALE,Scale (0-4),AAPASI,UPPER EXTREMITIES,1,1,1,,,4,WEEK 4,2007-01-03,29
ABC,QS,ABC-01-055,74,SCALE,Scale (0-4),AAPASI,UPPER EXTREMITIES,1,1,1,,,6,WEEK 6,2007-01-23,49
ABC,QS,ABC-01-055,75,SCALE,Scale (0-4),AAPASI,UPPER EXTREMITIES,0,0,0,,,8,WEEK 8,2007-02-09,66
ABC,QS,ABC-01-055,76,SCALE,Scale (0-4),AAPASI,UPPER EXTREMITIES,0,0,0,,,12,WEEK 12,2007-03-28,113
ABC,QS,ABC-01-055,77,SCALE,Scale (0-4),AAPASI,UPPER EXTREMITIES,0,0,0,,,16,WEEK 16,2007-04-23,139
ABC,QS,ABC-01-055,78,THCKNESS,Induration (0-4),AAPASI,UPPER EXTREMITIES,1,1,1,Y,,1,DAY 1,2006-11-21,-15
ABC,QS,ABC-01-055,79,THCKNESS,Induration (0-4),AAPASI,UPPER EXTREMITIES,1,1,1,,,2,WEEK 2,2006-12-18,13
ABC,QS,ABC-01-055,80,THCKNESS,Induration (0-4),AAPASI,UPPER EXTREMITIES,1,1,1,,,4,WEEK 4,2007-01-03,29
ABC,QS,ABC-01-055,81,THCKNESS,Induration (0-4),AAPASI,UPPER EXTREMITIES,1,1,1,,,6,WEEK 6,2007-01-23,49
ABC,QS,ABC-01-055,82,THCKNESS,Induration (0-4),AAPASI,UPPER EXTREMITIES,0,0,0,,,8,WEEK 8,2007-02-09,66
ABC,QS,ABC-01-055,83,THCKNESS,Induration (0-4),AAPASI,UPPER EXTREMITIES,0,0,0,,,12,WEEK 12,2007-03-28,113
ABC,QS,ABC-01-055,84,THCKNESS,Induration (0-4),AAPASI,UPPER EXTREMITIES,0,0,0,,,16,WEEK 16,2007-04-23,139
ABC,QS,ABC-01-055,85,PRURPS,Pruritus Point Scale,PRURITUS ASSESSMENT,,3,3,3,Y,,1,DAY 1,2006-11-21,-15
ABC,QS,ABC-01-055,86,PRURPS,Pruritus Point Scale,PRURITUS ASSESSMENT,,1,1,1,,,2,WEEK 2,2006-12-18,13
ABC,QS,ABC-01-055,87,PRURPS,Pruritus Point Scale,PRURITUS ASSESSMENT,,2,2,2,,,4,WEEK 4,2007-01-03,29
ABC,QS,ABC-01-055,88,PRURPS,Pruritus Point Scale,PRURITUS ASSESSMENT,,4,4,4,,,6,WEEK 6,2007-01-23,49
ABC,QS,ABC-01-055,89,PRURPS,Pruritus Point Scale,PRURITUS ASSESSMENT,,0,0,0,,,8,WEEK 8,2007-02-09,66
ABC,QS,ABC-01-055,90,PRURPS,Pruritus Point Scale,PRURITUS ASSESSMENT,,0,0,0,,,12,WEEK 12,2007-03-28,113
ABC,QS,ABC-01-055,91,PRURPS,Pruritus Point Scale,PRURITUS ASSESSMENT,,1,1,1,,,16,WEEK 16,2007-04-23,139
ABC,QS,ABC-01-055,92,PSGA,PSGA Score,PSGA,,2,2,2,Y,,1,DAY 1,2006-11-21,-15
ABC,QS,ABC-01-055,93,PSGA,PSGA Score,PSGA,,2,2,2,,,2,WEEK 2,2006-12-18,13
ABC,QS,ABC-01-055,94,PSGA,PSGA Score,PSGA,,1,1,1,,,4,WEEK 4,2007-01-03,29
ABC,QS,ABC-01-055,95,PSGA,PSGA Score,PSGA,,1,1,1,,,6,WEEK 6,2007-01-23,49
ABC,QS,ABC-01-055,96,PSGA,PSGA Score,PSGA,,0,0,0,,,8,WEEK 8,2007-02-09,66
ABC,QS,ABC-01-055,97,PSGA,PSGA Score,PSGA,,1,1,1,,,12,WEEK 12,2007-03-28,113
ABC,QS,ABC-01-055,98,PSGA,PSGA Score,PSGA,,1,1,1,,,16,WEEK 16,2007-04-23,139
ABC,QS,ABC-01-055,99,BODYAC,Body Area Code,PSI,PLAQUE 1,27,27,27,Y,,1,DAY 1,2006-11-21,-15
ABC,QS,ABC-01-055,100,BODYAC,Body Area Code,PSI,PLAQUE 1,27,27,27,,,2,WEEK 2,2006-12-18,13
ABC,QS,ABC-01-055,101,BODYAC,Body Area Code,PSI,PLAQUE 1,27,27,27,,,4,WEEK 4,2007-01-03,29
ABC,QS,ABC-01-055,102,BODYAC,Body Area Code,PSI,PLAQUE 1,27,27,27,,,6,WEEK 6,2007-01-23,49
ABC,QS,ABC-01-055,103,BODYAC,Body Area Code,PSI,PLAQUE 1,27,27,27,,,8,WEEK 8,2007-02-09,66
ABC,QS,ABC-01-055,104,BODYAC,Body Area Code,PSI,PLAQUE 1,27,27,27,,,12,WEEK 12,2007-03-28,113
ABC,QS,ABC-01-055,105,BODYAC,Body Area Code,PSI,PLAQUE 1,27,27,27,,,16,WEEK 16,2007-04-23,139
ABC,QS,ABC-01-055,106,CPSS,CPSS,PSI,PLAQUE 1,6,6,6,Y,Y,1,DAY 1,2006-11-21,-15
ABC,QS,ABC-01-055,107,CPSS,CPSS,PSI,PLAQUE 1,5,5,5,,Y,2,WEEK 2,2006-12-18,13
ABC,QS,ABC-01-055,108,CPSS,CPSS,PSI,PLAQUE 1,4,4,4,,Y,4,WEEK 4,2007-01-03,29
ABC,QS,ABC-01-055,109,CPSS,CPSS,PSI,PLAQUE 1,3,3,3,,Y,6,WEEK 6,2007-01-23,49
ABC,QS,ABC-01-055,110,CPSS,CPSS,PSI,PLAQUE 1,0,0,0,,Y,8,WEEK 8,2007-02-09,66
ABC,QS,ABC-01-055,111,CPSS,CPSS,PSI,PLAQUE 1,1,1,1,,Y,12,WEEK 12,2007-03-28,113
ABC,QS,ABC-01-055,112,CPSS,CPSS,PSI,PLAQUE 1,0,0,0,,Y,16,WEEK 16,2007-04-23,139
ABC,QS,ABC-01-055,113,ERYTHSS,Erythema Severity Score,PSI,PLAQUE 1,2,2,2,Y,,1,DAY 1,2006-11-21,-15
ABC,QS,ABC-01-055,114,ERYTHSS,Erythema Severity Score,PSI,PLAQUE 1,1,1,1,,,2,WEEK 2,2006-12-18,13
ABC,QS,ABC-01-055,115,ERYTHSS,Erythema Severity Score,PSI,PLAQUE 1,2,2,2,,,4,WEEK 4,2007-01-03,29
ABC,QS,ABC-01-055,116,ERYTHSS,Erythema Severity Score,PSI,PLAQUE 1,2,2,2,,,6,WEEK 6,2007-01-23,49
ABC,QS,ABC-01-055,117,ERYTHSS,Erythema Severity Score,PSI,PLAQUE 1,0,0,0,,,8,WEEK 8,2007-02-09,66
ABC,QS,ABC-01-055,118,ERYTHSS,Erythema Severity Score,PSI,PLAQUE 1,1,1,1,,,12,WEEK 12,2007-03-28,113
ABC,QS,ABC-01-055,119,ERYTHSS,Erythema Severity Score,PSI,PLAQUE 1,0,0,0,,,16,WEEK 16,2007-04-23,139
ABC,QS,ABC-01-055,120,INDURSS,Induration Severity Score,PSI,PLAQUE 1,2,2,2,Y,,1,DAY 1,2006-11-21,-15
ABC,QS,ABC-01-055,121,INDURSS,Induration Severity Score,PSI,PLAQUE 1,2,2,2,,,2,WEEK 2,2006-12-18,13
ABC,QS,ABC-01-055,122,INDURSS,Induration Severity Score,PSI,PLAQUE 1,1,1,1,,,4,WEEK 4,2007-01-03,29
ABC,QS,ABC-01-055,123,INDURSS,Induration Severity Score,PSI,PLAQUE 1,0,0,0,,,6,WEEK 6,2007-01-23,49
ABC,QS,ABC-01-055,124,INDURSS,Induration Severity Score,PSI,PLAQUE 1,0,0,0,,,8,WEEK 8,2007-02-09,66
ABC,QS,ABC-01-055,125,INDURSS,Induration Severity Score,PSI,PLAQUE 1,0,0,0,,,12,WEEK 12,2007-03-28,113
ABC,QS,ABC-01-055,126,INDURSS,Induration Severity Score,PSI,PLAQUE 1,0,0,0,,,16,WEEK 16,2007-04-23,139
ABC,QS,ABC-01-055,127,SCALSS,Scaling Severity Score,PSI,PLAQUE 1,2,2,2,Y,,1,DAY 1,2006-11-21,-15
ABC,QS,ABC-01-055,128,SCALSS,Scaling Severity Score,PSI,PLAQUE 1,2,2,2,,,2,WEEK 2,2006-12-18,13
ABC,QS,ABC-01-055,129,SCALSS,Scaling Severity Score,PSI,PLAQUE 1,1,1,1,,,4,WEEK 4,2007-01-03,29
ABC,QS,ABC-01-055,130,SCALSS,Scaling Severity Score,PSI,PLAQUE 1,1,1,1,,,6,WEEK 6,2007-01-23,49
ABC,QS,ABC-01-055,131,SCALSS,Scaling Severity Score,PSI,PLAQUE 1,0,0,0,,,8,WEEK 8,2007-02-09,66
ABC,QS,ABC-01-055,132,SCALSS,Scaling Severity Score,PSI,PLAQUE 1,0,0,0,,,12,WEEK 12,2007-03-28,113
ABC,QS,ABC-01-055,133,SCALSS,Scaling Severity Score,PSI,PLAQUE 1,0,0,0,,,16,WEEK 16,2007-04-23,139
ABC,QS,ABC-01-055,134,BODYAC,Body Area Code,PSI,PLAQUE 2,20,20,20,Y,,1,DAY 1,2006-11-21,-15
ABC,QS,ABC-01-055,135,BODYAC,Body Area Code,PSI,PLAQUE 2,20,20,20,,,2,WEEK 2,2006-12-18,13
ABC,QS,ABC-01-055,136,BODYAC,Body Area Code,PSI,PLAQUE 2,20,20,20,,,4,WEEK 4,2007-01-03,29
ABC,QS,ABC-01-055,137,BODYAC,Body Area Code,PSI,PLAQUE 2,20,20,20,,,6,WEEK 6,2007-01-23,49
ABC,QS,ABC-01-055,138,BODYAC,Body Area Code,PSI,PLAQUE 2,20,20,20,,,8,WEEK 8,2007-02-09,66
ABC,QS,ABC-01-055,139,BODYAC,Body Area Code,PSI,PLAQUE 2,20,20,20,,,12,WEEK 12,2007-03-28,113
ABC,QS,ABC-01-055,140,BODYAC,Body Area Code,PSI,PLAQUE 2,20,20,20,,,16,WEEK 16,2007-04-23,139
ABC,QS,ABC-01-055,141,CPSS,CPSS,PSI,PLAQUE 2,6,6,6,Y,Y,1,DAY 1,2006-11-21,-15
ABC,QS,ABC-01-055,142,CPSS,CPSS,PSI,PLAQUE 2,5,5,5,,Y,2,WEEK 2,2006-12-18,13
ABC,QS,ABC-01-055,143,CPSS,CPSS,PSI,PLAQUE 2,4,4,4,,Y,4,WEEK 4,2007-01-03,29
ABC,QS,ABC-01-055,144,CPSS,CPSS,PSI,PLAQUE 2,3,3,3,,Y,6,WEEK 6,2007-01-23,49
ABC,QS,ABC-01-055,145,CPSS,CPSS,PSI,PLAQUE 2,0,0,0,,Y,8,WEEK 8,2007-02-09,66
ABC,QS,ABC-01-055,146,CPSS,CPSS,PSI,PLAQUE 2,2,2,2,,Y,12,WEEK 12,2007-03-28,113
ABC,QS,ABC-01-055,147,CPSS,CPSS,PSI,PLAQUE 2,0,0,0,,Y,16,WEEK 16,2007-04-23,139
ABC,QS,ABC-01-055,148,ERYTHSS,Erythema Severity Score,PSI,PLAQUE 2,2,2,2,Y,,1,DAY 1,2006-11-21,-15
ABC,QS,ABC-01-055,149,ERYTHSS,Erythema Severity Score,PSI,PLAQUE 2,1,1,1,,,2,WEEK 2,2006-12-18,13
ABC,QS,ABC-01-055,150,ERYTHSS,Erythema Severity Score,PSI,PLAQUE 2,2,2,2,,,4,WEEK 4,2007-01-03,29
ABC,QS,ABC-01-055,151,ERYTHSS,Erythema Severity Score,PSI,PLAQUE 2,2,2,2,,,6,WEEK 6,2007-01-23,49
ABC,QS,ABC-01-055,152,ERYTHSS,Erythema Severity Score,PSI,PLAQUE 2,0,0,0,,,8,WEEK 8,2007-02-09,66
ABC,QS,ABC-01-055,153,ERYTHSS,Erythema Severity Score,PSI,PLAQUE 2,2,2,2,,,12,WEEK 12,2007-03-28,113
ABC,QS,ABC-01-055,154,ERYTHSS,Erythema Severity Score,PSI,PLAQUE 2,0,0,0,,,16,WEEK 16,2007-04-23,139
ABC,QS,ABC-01-055,155,INDURSS,Induration Severity Score,PSI,PLAQUE 2,2,2,2,Y,,1,DAY 1,2006-11-21,-15
ABC,QS,ABC-01-055,156,INDURSS,Induration Severity Score,PSI,PLAQUE 2,2,2,2,,,2,WEEK 2,2006-12-18,13
ABC,QS,ABC-01-055,157,INDURSS,Induration Severity Score,PSI,PLAQUE 2,1,1,1,,,4,WEEK 4,2007-01-03,29
ABC,QS,ABC-01-055,158,INDURSS,Induration Severity Score,PSI,PLAQUE 2,0,0,0,,,6,WEEK 6,2007-01-23,49
ABC,QS,ABC-01-055,159,INDURSS,Induration Severity Score,PSI,PLAQUE 2,0,0,0,,,8,WEEK 8,2007-02-09,66
ABC,QS,ABC-01-055,160,INDURSS,Induration Severity Score,PSI,PLAQUE 2,0,0,0,,,12,WEEK 12,2007-03-28,113
ABC,QS,ABC-01-055,161,INDURSS,Induration Severity Score,PSI,PLAQUE 2,0,0,0,,,16,WEEK 16,2007-04-23,139
ABC,QS,ABC-01-055,162,SCALSS,Scaling Severity Score,PSI,PLAQUE 2,2,2,2,Y,,1,DAY 1,2006-11-21,-15
ABC,QS,ABC-01-055,163,SCALSS,Scaling Severity Score,PSI,PLAQUE 2,2,2,2,,,2,WEEK 2,2006-12-18,13
ABC,QS,ABC-01-055,164,SCALSS,Scaling Severity Score,PSI,PLAQUE 2,1,1,1,,,4,WEEK 4,2007-01-03,29
ABC,QS,ABC-01-055,165,SCALSS,Scaling Severity Score,PSI,PLAQUE 2,1,1,1,,,6,WEEK 6,2007-01-23,49
ABC,QS,ABC-01-055,166,SCALSS,Scaling Severity Score,PSI,PLAQUE 2,0,0,0,,,8,WEEK 8,2007-02-09,66
ABC,QS,ABC-01-055,167,SCALSS,Scaling Severity Score,PSI,PLAQUE 2,0,0,0,,,12,WEEK 12,2007-03-28,113
ABC,QS,ABC-01-055,168,SCALSS,Scaling Severity Score,PSI,PLAQUE 2,0,0,0,,,16,WEEK 16,2007-04-23,139
ABC,QS,ABC-01-056,1,AREASCOR,Area Score (0-6),AAPASI,LOWER EXTREMITIES,3,3,3,Y,,1,DAY 1,2006-11-28,1
ABC,QS,ABC-01-056,2,AREASCOR,Area Score (0-6),AAPASI,LOWER EXTREMITIES,2,2,2,,,2,WEEK 2,2006-12-13,16
ABC,QS,ABC-01-056,3,AREASCOR,Area Score (0-6),AAPASI,LOWER EXTREMITIES,2,2,2,,,4,WEEK 4,2006-12-27,30
ABC,QS,ABC-01-056,4,AREASCOR,Area Score (0-6),AAPASI,LOWER EXTREMITIES,2,2,2,,,6,WEEK 6,2007-01-10,44
ABC,QS,ABC-01-056,5,AREASCOR,Area Score (0-6),AAPASI,LOWER EXTREMITIES,2,2,2,,,8,WEEK 8,2007-01-24,58
ABC,QS,ABC-01-056,6,AREASCOR,Area Score (0-6),AAPASI,LOWER EXTREMITIES,2,2,2,,,12,WEEK 12,2007-02-21,86
ABC,QS,ABC-01-056,7,AREASCOR,Area Score (0-6),AAPASI,LOWER EXTREMITIES,2,2,2,,,16,WEEK 16,2007-03-22,115
ABC,QS,ABC-01-056,8,ERYTHEMA,Erythema (0-4),AAPASI,LOWER EXTREMITIES,2,2,2,Y,,1,DAY 1,2006-11-28,1
ABC,QS,ABC-01-056,9,ERYTHEMA,Erythema (0-4),AAPASI,LOWER EXTREMITIES,3,3,3,,,2,WEEK 2,2006-12-13,16
ABC,QS,ABC-01-056,10,ERYTHEMA,Erythema (0-4),AAPASI,LOWER EXTREMITIES,2,2,2,,,4,WEEK 4,2006-12-27,30
ABC,QS,ABC-01-056,11,ERYTHEMA,Erythema (0-4),AAPASI,LOWER EXTREMITIES,2,2,2,,,6,WEEK 6,2007-01-10,44
ABC,QS,ABC-01-056,12,ERYTHEMA,Erythema (0-4),AAPASI,LOWER EXTREMITIES,2,2,2,,,8,WEEK 8,2007-01-24,58
ABC,QS,ABC-01-056,13,ERYTHEMA,Erythema (0-4),AAPASI,LOWER EXTREMITIES,2,2,2,,,12,WEEK 12,2007-02-21,86
ABC,QS,ABC-01-056,14,ERYTHEMA,Erythema (0-4),AAPASI,LOWER EXTREMITIES,2,2,2,,,16,WEEK 16,2007-03-22,115
ABC,QS,ABC-01-056,15,SCALE,Scale (0-4),AAPASI,LOWER EXTREMITIES,2,2,2,Y,,1,DAY 1,2006-11-28,1
ABC,QS,ABC-01-056,16,SCALE,Scale (0-4),AAPASI,LOWER EXTREMITIES,2,2,2,,,2,WEEK 2,2006-12-13,16
ABC,QS,ABC-01-056,17,SCALE,Scale (0-4),AAPASI,LOWER EXTREMITIES,2,2,2,,,4,WEEK 4,2006-12-27,30
ABC,QS,ABC-01-056,18,SCALE,Scale (0-4),AAPASI,LOWER EXTREMITIES,2,2,2,,,6,WEEK 6,2007-01-10,44
ABC,QS,ABC-01-056,19,SCALE,Scale (0-4),AAPASI,LOWER EXTREMITIES,1,1,1,,,8,WEEK 8,2007-01-24,58
ABC,QS,ABC-01-056,20,SCALE,Scale (0-4),AAPASI,LOWER EXTREMITIES,1,1,1,,,12,WEEK 12,2007-02-21,86
ABC,QS,ABC-01-056,21,SCALE,Scale (0-4),AAPASI,LOWER EXTREMITIES,1,1,1,,,16,WEEK 16,2007-03-22,115
ABC,QS,ABC-01-056,22,THCKNESS,Induration (0-4),AAPASI,LOWER EXTREMITIES,2,2,2,Y,,1,DAY 1,2006-11-28,1
ABC,QS,ABC-01-056,23,THCKNESS,Induration (0-4),AAPASI,LOWER EXTREMITIES,3,3,3,,,2,WEEK 2,2006-12-13,16
ABC,QS,ABC-01-056,24,THCKNESS,Induration (0-4),AAPASI,LOWER EXTREMITIES,2,2,2,,,4,WEEK 4,2006-12-27,30
ABC,QS,ABC-01-056,25,THCKNESS,Induration (0-4),AAPASI,LOWER EXTREMITIES,2,2,2,,,6,WEEK 6,2007-01-10,44
ABC,QS,ABC-01-056,26,THCKNESS,Induration (0-4),AAPASI,LOWER EXTREMITIES,2,2,2,,,8,WEEK 8,2007-01-24,58
ABC,QS,ABC-01-056,27,THCKNESS,Induration (0-4),AAPASI,LOWER EXTREMITIES,2,2,2,,,12,WEEK 12,2007-02-21,86
ABC,QS,ABC-01-056,28,THCKNESS,Induration (0-4),AAPASI,LOWER EXTREMITIES,2,2,2,,,16,WEEK 16,2007-03-22,115
ABC,QS,ABC-01-056,29,AREASCOR,Area Score (0-6),AAPASI,TRUNK,2,2,2,Y,,1,DAY 1,2006-11-28,1
ABC,QS,ABC-01-056,30,AREASCOR,Area Score (0-6),AAPASI,TRUNK,1,1,1,,,2,WEEK 2,2006-12-13,16
ABC,QS,ABC-01-056,31,AREASCOR,Area Score (0-6),AAPASI,TRUNK,1,1,1,,,4,WEEK 4,2006-12-27,30
ABC,QS,ABC-01-056,32,AREASCOR,Area Score (0-6),AAPASI,TRUNK,1,1,1,,,6,WEEK 6,2007-01-10,44
ABC,QS,ABC-01-056,33,AREASCOR,Area Score (0-6),AAPASI,TRUNK,1,1,1,,,8,WEEK 8,2007-01-24,58
ABC,QS,ABC-01-056,34,AREASCOR,Area Score (0-6),AAPASI,TRUNK,1,1,1,,,12,WEEK 12,2007-02-21,86
ABC,QS,ABC-01-056,35,AREASCOR,Area Score (0-6),AAPASI,TRUNK,1,1,1,,,16,WEEK 16,2007-03-22,115
ABC,QS,ABC-01-056,36,ERYTHEMA,Erythema (0-4),AAPASI,TRUNK,2,2,2,Y,,1,DAY 1,2006-11-28,1
ABC,QS,ABC-01-056,37,ERYTHEMA,Erythema (0-4),AAPASI,TRUNK,3,3,3,,,2,WEEK 2,2006-12-13,16
ABC,QS,ABC-01-056,38,ERYTHEMA,Erythema (0-4),AAPASI,TRUNK,2,2,2,,,4,WEEK 4,2006-12-27,30
ABC,QS,ABC-01-056,39,ERYTHEMA,Erythema (0-4),AAPASI,TRUNK,2,2,2,,,6,WEEK 6,2007-01-10,44
ABC,QS,ABC-01-056,40,ERYTHEMA,Erythema (0-4),AAPASI,TRUNK,1,1,1,,,8,WEEK 8,2007-01-24,58
ABC,QS,ABC-01-056,41,ERYTHEMA,Erythema (0-4),AAPASI,TRUNK,2,2,2,,,12,WEEK 12,2007-02-21,86
ABC,QS,ABC-01-056,42,ERYTHEMA,Erythema (0-4),AAPASI,TRUNK,1,1,1,,,16,WEEK 16,2007-03-22,115
ABC,QS,ABC-01-056,43,SCALE,Scale (0-4),AAPASI,TRUNK,2,2,2,Y,,1,DAY 1,2006-11-28,1
ABC,QS,ABC-01-056,44,SCALE,Scale (0-4),AAPASI,TRUNK,2,2,2,,,2,WEEK 2,2006-12-13,16
ABC,QS,ABC-01-056,45,SCALE,Scale (0-4),AAPASI,TRUNK,2,2,2,,,4,WEEK 4,2006-12-27,30
ABC,QS,ABC-01-056,46,SCALE,Scale (0-4),AAPASI,TRUNK,2,2,2,,,6,WEEK 6,2007-01-10,44
ABC,QS,ABC-01-056,47,SCALE,Scale (0-4),AAPASI,TRUNK,1,1,1,,,8,WEEK 8,2007-01-24,58
ABC,QS,ABC-01-056,48,SCALE,Scale (0-4),AAPASI,TRUNK,1,1,1,,,12,WEEK 12,2007-02-21,86
ABC,QS,ABC-01-056,49,SCALE,Scale (0-4),AAPASI,TRUNK,1,1,1,,,16,WEEK 16,2007-03-22,115
ABC,QS,ABC-01-056,50,THCKNESS,Induration (0-4),AAPASI,TRUNK,2,2,2,Y,,1,DAY 1,2006-11-28,1
ABC,QS,ABC-01-056,51,THCKNESS,Induration (0-4),AAPASI,TRUNK,2,2,2,,,2,WEEK 2,2006-12-13,16
ABC,QS,ABC-01-056,52,THCKNESS,Induration (0-4),AAPASI,TRUNK,2,2,2,,,4,WEEK 4,2006-12-27,30
ABC,QS,ABC-01-056,53,THCKNESS,Induration (0-4),AAPASI,TRUNK,2,2,2,,,6,WEEK 6,2007-01-10,44
ABC,QS,ABC-01-056,54,THCKNESS,Induration (0-4),AAPASI,TRUNK,1,1,1,,,8,WEEK 8,2007-01-24,58
ABC,QS,ABC-01-056,55,THCKNESS,Induration (0-4),AAPASI,TRUNK,2,2,2,,,12,WEEK 12,2007-02-21,86
ABC,QS,ABC-01-056,56,THCKNESS,Induration (0-4),AAPASI,TRUNK,1,1,1,,,16,WEEK 16,2007-03-22,115
ABC,QS,ABC-01-056,57,AREASCOR,Area Score (0-6),AAPASI,UPPER EXTREMITIES,3,3,3,Y,,1,DAY 1,2006-11-28,1
ABC,QS,ABC-01-056,58,AREASCOR,Area Score (0-6),AAPASI,UPPER EXTREMITIES,1,1,1,,,2,WEEK 2,2006-12-13,16
ABC,QS,ABC-01-056,59,AREASCOR,Area Score (0-6),AAPASI,UPPER EXTREMITIES,1,1,1,,,4,WEEK 4,2006-12-27,30
ABC,QS,ABC-01-056,60,AREASCOR,Area Score (0-6),AAPASI,UPPER EXTREMITIES,1,1,1,,,6,WEEK 6,2007-01-10,44
ABC,QS,ABC-01-056,61,AREASCOR,Area Score (0-6),AAPASI,UPPER EXTREMITIES,1,1,1,,,8,WEEK 8,2007-01-24,58
ABC,QS,ABC-01-056,62,AREASCOR,Area Score (0-6),AAPASI,UPPER EXTREMITIES,1,1,1,,,12,WEEK 12,2007-02-21,86
ABC,QS,ABC-01-056,63,AREASCOR,Area Score (0-6),AAPASI,UPPER EXTREMITIES,1,1,1,,,16,WEEK 16,2007-03-22,115
ABC,QS,ABC-01-056,64,ERYTHEMA,Erythema (0-4),AAPASI,UPPER EXTREMITIES,2,2,2,Y,,1,DAY 1,2006-11-28,1
ABC,QS,ABC-01-056,65,ERYTHEMA,Erythema (0-4),AAPASI,UPPER EXTREMITIES,3,3,3,,,2,WEEK 2,2006-12-13,16
ABC,QS,ABC-01-056,66,ERYTHEMA,Erythema (0-4),AAPASI,UPPER EXTREMITIES,2,2,2,,,4,WEEK 4,2006-12-27,30
ABC,QS,ABC-01-056,67,ERYTHEMA,Erythema (0-4),AAPASI,UPPER EXTREMITIES,2,2,2,,,6,WEEK 6,2007-01-10,44
ABC,QS,ABC-01-056,68,ERYTHEMA,Erythema (0-4),AAPASI,UPPER EXTREMITIES,2,2,2,,,8,WEEK 8,2007-01-24,58
ABC,QS,ABC-01-056,69,ERYTHEMA,Erythema (0-4),AAPASI,UPPER EXTREMITIES,2,2,2,,,12,WEEK 12,2007-02-21,86
ABC,QS,ABC-01-056,70,ERYTHEMA,Erythema (0-4),AAPASI,UPPER EXTREMITIES,2,2,2,,,16,WEEK 16,2007-03-22,115
ABC,QS,ABC-01-056,71,SCALE,Scale (0-4),AAPASI,UPPER EXTREMITIES,2,2,2,Y,,1,DAY 1,2006-11-28,1
ABC,QS,ABC-01-056,72,SCALE,Scale (0-4),AAPASI,UPPER EXTREMITIES,2,2,2,,,2,WEEK 2,2006-12-13,16
ABC,QS,ABC-01-056,73,SCALE,Scale (0-4),AAPASI,UPPER EXTREMITIES,2,2,2,,,4,WEEK 4,2006-12-27,30
ABC,QS,ABC-01-056,74,SCALE,Scale (0-4),AAPASI,UPPER EXTREMITIES,2,2,2,,,6,WEEK 6,2007-01-10,44
ABC,QS,ABC-01-056,75,SCALE,Scale (0-4),AAPASI,UPPER EXTREMITIES,1,1,1,,,8,WEEK 8,2007-01-24,58
ABC,QS,ABC-01-056,76,SCALE,Scale (0-4),AAPASI,UPPER EXTREMITIES,1,1,1,,,12,WEEK 12,2007-02-21,86
ABC,QS,ABC-01-056,77,SCALE,Scale (0-4),AAPASI,UPPER EXTREMITIES,1,1,1,,,16,WEEK 16,2007-03-22,115
ABC,QS,ABC-01-056,78,THCKNESS,Induration (0-4),AAPASI,UPPER EXTREMITIES,2,2,2,Y,,1,DAY 1,2006-11-28,1
ABC,QS,ABC-01-056,79,THCKNESS,Induration (0-4),AAPASI,UPPER EXTREMITIES,3,3,3,,,2,WEEK 2,2006-12-13,16
ABC,QS,ABC-01-056,80,THCKNESS,Induration (0-4),AAPASI,UPPER EXTREMITIES,2,2,2,,,4,WEEK 4,2006-12-27,30
ABC,QS,ABC-01-056,81,THCKNESS,Induration (0-4),AAPASI,UPPER EXTREMITIES,2,2,2,,,6,WEEK 6,2007-01-10,44
ABC,QS,ABC-01-056,82,THCKNESS,Induration (0-4),AAPASI,UPPER EXTREMITIES,2,2,2,,,8,WEEK 8,2007-01-24,58
ABC,QS,ABC-01-056,83,THCKNESS,Induration (0-4),AAPASI,UPPER EXTREMITIES,2,2,2,,,12,WEEK 12,2007-02-21,86
ABC,QS,ABC-01-056,84,THCKNESS,Induration (0-4),AAPASI,UPPER EXTREMITIES,2,2,2,,,16,WEEK 16,2007-03-22,115
ABC,QS,ABC-01-056,85,PRURPS,Pruritus Point Scale,PRURITUS ASSESSMENT,,1,1,1,Y,,1,DAY 1,2006-11-28,1
ABC,QS,ABC-01-056,86,PRURPS,Pruritus Point Scale,PRURITUS ASSESSMENT,,2,2,2,,,2,WEEK 2,2006-12-13,16
ABC,QS,ABC-01-056,87,PRURPS,Pruritus Point Scale,PRURITUS ASSESSMENT,,2,2,2,,,4,WEEK 4,2006-12-27,30
ABC,QS,ABC-01-056,88,PRURPS,Pruritus Point Scale,PRURITUS ASSESSMENT,,1,1,1,,,6,WEEK 6,2007-01-10,44
ABC,QS,ABC-01-056,89,PRURPS,Pruritus Point Scale,PRURITUS ASSESSMENT,,1,1,1,,,8,WEEK 8,2007-01-24,58
ABC,QS,ABC-01-056,90,PRURPS,Pruritus Point Scale,PRURITUS ASSESSMENT,,1,1,1,,,12,WEEK 12,2007-02-21,86
ABC,QS,ABC-01-056,91,PRURPS,Pruritus Point Scale,PRURITUS ASSESSMENT,,3,3,3,,,16,WEEK 16,2007-03-22,115
ABC,QS,ABC-01-056,92,PSGA,PSGA Score,PSGA,,2,2,2,Y,,1,DAY 1,2006-11-28,1
ABC,QS,ABC-01-056,93,PSGA,PSGA Score,PSGA,,3,3,3,,,2,WEEK 2,2006-12-13,16
ABC,QS,ABC-01-056,94,PSGA,PSGA Score,PSGA,,2,2,2,,,4,WEEK 4,2006-12-27,30
ABC,QS,ABC-01-056,95,PSGA,PSGA Score,PSGA,,2,2,2,,,6,WEEK 6,2007-01-10,44
ABC,QS,ABC-01-056,96,PSGA,PSGA Score,PSGA,,2,2,2,,,8,WEEK 8,2007-01-24,58
ABC,QS,ABC-01-056,97,PSGA,PSGA Score,PSGA,,2,2,2,,,12,WEEK 12,2007-02-21,86
ABC,QS,ABC-01-056,98,PSGA,PSGA Score,PSGA,,2,2,2,,,16,WEEK 16,2007-03-22,115
ABC,QS,ABC-01-056,99,BODYAC,Body Area Code,PSI,PLAQUE 1,24,24,24,Y,,1,DAY 1,2006-11-28,1
ABC,QS,ABC-01-056,100,BODYAC,Body Area Code,PSI,PLAQUE 1,24,24,24,,,2,WEEK 2,2006-12-13,16
ABC,QS,ABC-01-056,101,BODYAC,Body Area Code,PSI,PLAQUE 1,24,24,24,,,4,WEEK 4,2006-12-27,30
ABC,QS,ABC-01-056,102,BODYAC,Body Area Code,PSI,PLAQUE 1,24,24,24,,,6,WEEK 6,2007-01-10,44
ABC,QS,ABC-01-056,103,BODYAC,Body Area Code,PSI,PLAQUE 1,24,24,24,,,8,WEEK 8,2007-01-24,58
ABC,QS,ABC-01-056,104,BODYAC,Body Area Code,PSI,PLAQUE 1,24,24,24,,,12,WEEK 12,2007-02-21,86
ABC,QS,ABC-01-056,105,BODYAC,Body Area Code,PSI,PLAQUE 1,24,24,24,,,16,WEEK 16,2007-03-22,115
ABC,QS,ABC-01-056,106,CPSS,CPSS,PSI,PLAQUE 1,6,6,6,Y,Y,1,DAY 1,2006-11-28,1
ABC,QS,ABC-01-056,107,CPSS,CPSS,PSI,PLAQUE 1,8,8,8,,Y,2,WEEK 2,2006-12-13,16
ABC,QS,ABC-01-056,108,CPSS,CPSS,PSI,PLAQUE 1,5,5,5,,Y,4,WEEK 4,2006-12-27,30
ABC,QS,ABC-01-056,109,CPSS,CPSS,PSI,PLAQUE 1,6,6,6,,Y,6,WEEK 6,2007-01-10,44
ABC,QS,ABC-01-056,110,CPSS,CPSS,PSI,PLAQUE 1,5,5,5,,Y,8,WEEK 8,2007-01-24,58
ABC,QS,ABC-01-056,111,CPSS,CPSS,PSI,PLAQUE 1,5,5,5,,Y,12,WEEK 12,2007-02-21,86
ABC,QS,ABC-01-056,112,CPSS,CPSS,PSI,PLAQUE 1,5,5,5,,Y,16,WEEK 16,2007-03-22,115
ABC,QS,ABC-01-056,113,ERYTHSS,Erythema Severity Score,PSI,PLAQUE 1,2,2,2,Y,,1,DAY 1,2006-11-28,1
ABC,QS,ABC-01-056,114,ERYTHSS,Erythema Severity Score,PSI,PLAQUE 1,3,3,3,,,2,WEEK 2,2006-12-13,16
ABC,QS,ABC-01-056,115,ERYTHSS,Erythema Severity Score,PSI,PLAQUE 1,2,2,2,,,4,WEEK 4,2006-12-27,30
ABC,QS,ABC-01-056,116,ERYTHSS,Erythema Severity Score,PSI,PLAQUE 1,2,2,2,,,6,WEEK 6,2007-01-10,44
ABC,QS,ABC-01-056,117,ERYTHSS,Erythema Severity Score,PSI,PLAQUE 1,2,2,2,,,8,WEEK 8,2007-01-24,58
ABC,QS,ABC-01-056,118,ERYTHSS,Erythema Severity Score,PSI,PLAQUE 1,2,2,2,,,12,WEEK 12,2007-02-21,86
ABC,QS,ABC-01-056,119,ERYTHSS,Erythema Severity Score,PSI,PLAQUE 1,2,2,2,,,16,WEEK 16,2007-03-22,115
ABC,QS,ABC-01-056,120,INDURSS,Induration Severity Score,PSI,PLAQUE 1,2,2,2,Y,,1,DAY 1,2006-11-28,1
ABC,QS,ABC-01-056,121,INDURSS,Induration Severity Score,PSI,PLAQUE 1,3,3,3,,,2,WEEK 2,2006-12-13,16
ABC,QS,ABC-01-056,122,INDURSS,Induration Severity Score,PSI,PLAQUE 1,2,2,2,,,4,WEEK 4,2006-12-27,30
ABC,QS,ABC-01-056,123,INDURSS,Induration Severity Score,PSI,PLAQUE 1,2,2,2,,,6,WEEK 6,2007-01-10,44
ABC,QS,ABC-01-056,124,INDURSS,Induration Severity Score,PSI,PLAQUE 1,2,2,2,,,8,WEEK 8,2007-01-24,58
ABC,QS,ABC-01-056,125,INDURSS,Induration Severity Score,PSI,PLAQUE 1,2,2,2,,,12,WEEK 12,2007-02-21,86
ABC,QS,ABC-01-056,126,INDURSS,Induration Severity Score,PSI,PLAQUE 1,2,2,2,,,16,WEEK 16,2007-03-22,115
ABC,QS,ABC-01-056,127,SCALSS,Scaling Severity Score,PSI,PLAQUE 1,2,2,2,Y,,1,DAY 1,2006-11-28,1
ABC,QS,ABC-01-056,128,SCALSS,Scaling Severity Score,PSI,PLAQUE 1,2,2,2,,,2,WEEK 2,2006-12-13,16
ABC,QS,ABC-01-056,129,SCALSS,Scaling Severity Score,PSI,PLAQUE 1,1,1,1,,,4,WEEK 4,2006-12-27,30
ABC,QS,ABC-01-056,130,SCALSS,Scaling Severity Score,PSI,PLAQUE 1,2,2,2,,,6,WEEK 6,2007-01-10,44
ABC,QS,ABC-01-056,131,SCALSS,Scaling Severity Score,PSI,PLAQUE 1,1,1,1,,,8,WEEK 8,2007-01-24,58
ABC,QS,ABC-01-056,132,SCALSS,Scaling Severity Score,PSI,PLAQUE 1,1,1,1,,,12,WEEK 12,2007-02-21,86
ABC,QS,ABC-01-056,133,SCALSS,Scaling Severity Score,PSI,PLAQUE 1,1,1,1,,,16,WEEK 16,2007-03-22,115
ABC,QS,ABC-01-056,134,BODYAC,Body Area Code,PSI,PLAQUE 2,10,10,10,Y,,1,DAY 1,2006-11-28,1
ABC,QS,ABC-01-056,135,BODYAC,Body Area Code,PSI,PLAQUE 2,10,10,10,,,2,WEEK 2,2006-12-13,16
ABC,QS,ABC-01-056,136,BODYAC,Body Area Code,PSI,PLAQUE 2,10,10,10,,,4,WEEK 4,2006-12-27,30
ABC,QS,ABC-01-056,137,BODYAC,Body Area Code,PSI,PLAQUE 2,10,10,10,,,6,WEEK 6,2007-01-10,44
ABC,QS,ABC-01-056,138,BODYAC,Body Area Code,PSI,PLAQUE 2,10,10,10,,,8,WEEK 8,2007-01-24,58
ABC,QS,ABC-01-056,139,BODYAC,Body Area Code,PSI,PLAQUE 2,10,10,10,,,12,WEEK 12,2007-02-21,86
ABC,QS,ABC-01-056,140,BODYAC,Body Area Code,PSI,PLAQUE 2,10,10,10,,,16,WEEK 16,2007-03-22,115
ABC,QS,ABC-01-056,141,CPSS,CPSS,PSI,PLAQUE 2,6,6,6,Y,Y,1,DAY 1,2006-11-28,1
ABC,QS,ABC-01-056,142,CPSS,CPSS,PSI,PLAQUE 2,8,8,8,,Y,2,WEEK 2,2006-12-13,16
ABC,QS,ABC-01-056,143,CPSS,CPSS,PSI,PLAQUE 2,5,5,5,,Y,4,WEEK 4,2006-12-27,30
ABC,QS,ABC-01-056,144,CPSS,CPSS,PSI,PLAQUE 2,6,6,6,,Y,6,WEEK 6,2007-01-10,44
ABC,QS,ABC-01-056,145,CPSS,CPSS,PSI,PLAQUE 2,5,5,5,,Y,8,WEEK 8,2007-01-24,58
ABC,QS,ABC-01-056,146,CPSS,CPSS,PSI,PLAQUE 2,5,5,5,,Y,12,WEEK 12,2007-02-21,86
ABC,QS,ABC-01-056,147,CPSS,CPSS,PSI,PLAQUE 2,5,5,5,,Y,16,WEEK 16,2007-03-22,115
ABC,QS,ABC-01-056,148,ERYTHSS,Erythema Severity Score,PSI,PLAQUE 2,2,2,2,Y,,1,DAY 1,2006-11-28,1
ABC,QS,ABC-01-056,149,ERYTHSS,Erythema Severity Score,PSI,PLAQUE 2,3,3,3,,,2,WEEK 2,2006-12-13,16
ABC,QS,ABC-01-056,150,ERYTHSS,Erythema Severity Score,PSI,PLAQUE 2,2,2,2,,,4,WEEK 4,2006-12-27,30
ABC,QS,ABC-01-056,151,ERYTHSS,Erythema Severity Score,PSI,PLAQUE 2,2,2,2,,,6,WEEK 6,2007-01-10,44
ABC,QS,ABC-01-056,152,ERYTHSS,Erythema Severity Score,PSI,PLAQUE 2,2,2,2,,,8,WEEK 8,2007-01-24,58
ABC,QS,ABC-01-056,153,ERYTHSS,Erythema Severity Score,PSI,PLAQUE 2,2,2,2,,,12,WEEK 12,2007-02-21,86
ABC,QS,ABC-01-056,154,ERYTHSS,Erythema Severity Score,PSI,PLAQUE 2,2,2,2,,,16,WEEK 16,2007-03-22,115
ABC,QS,ABC-01-056,155,INDURSS,Induration Severity Score,PSI,PLAQUE 2,2,2,2,Y,,1,DAY 1,2006-11-28,1
ABC,QS,ABC-01-056,156,INDURSS,Induration Severity Score,PSI,PLAQUE 2,3,3,3,,,2,WEEK 2,2006-12-13,16
ABC,QS,ABC-01-056,157,INDURSS,Induration Severity Score,PSI,PLAQUE 2,2,2,2,,,4,WEEK 4,2006-12-27,30
ABC,QS,ABC-01-056,158,INDURSS,Induration Severity Score,PSI,PLAQUE 2,2,2,2,,,6,WEEK 6,2007-01-10,44
ABC,QS,ABC-01-056,159,INDURSS,Induration Severity Score,PSI,PLAQUE 2,2,2,2,,,8,WEEK 8,2007-01-24,58
ABC,QS,ABC-01-056,160,INDURSS,Induration Severity Score,PSI,PLAQUE 2,2,2,2,,,12,WEEK 12,2007-02-21,86
ABC,QS,ABC-01-056,161,INDURSS,Induration Severity Score,PSI,PLAQUE 2,2,2,2,,,16,WEEK 16,2007-03-22,115
ABC,QS,ABC-01-056,162,SCALSS,Scaling Severity Score,PSI,PLAQUE 2,2,2,2,Y,,1,DAY 1,2006-11-28,1
ABC,QS,ABC-01-056,163,SCALSS,Scaling Severity Score,PSI,PLAQUE 2,2,2,2,,,2,WEEK 2,2006-12-13,16
ABC,QS,ABC-01-056,164,SCALSS,Scaling Severity Score,PSI,PLAQUE 2,1,1,1,,,4,WEEK 4,2006-12-27,30
ABC,QS,ABC-01-056,165,SCALSS,Scaling Severity Score,PSI,PLAQUE 2,2,2,2,,,6,WEEK 6,2007-01-10,44
ABC,QS,ABC-01-056,166,SCALSS,Scaling Severity Score,PSI,PLAQUE 2,1,1,1,,,8,WEEK 8,2007-01-24,58
ABC,QS,ABC-01-056,167,SCALSS,Scaling Severity Score,PSI,PLAQUE 2,1,1,1,,,12,WEEK 12,2007-02-21,86
ABC,QS,ABC-01-056,168,SCALSS,Scaling Severity Score,PSI,PLAQUE 2,1,1,1,,,16,WEEK 16,2007-03-22,115
ABC,QS,ABC-01-113,1,AREASCOR,Area Score (0-6),AAPASI,LOWER EXTREMITIES,1,1,1,Y,,1,DAY 1,2006-12-05,1
ABC,QS,ABC-01-113,2,AREASCOR,Area Score (0-6),AAPASI,LOWER EXTREMITIES,1,1,1,,,2,WEEK 2,2006-12-19,15
ABC,QS,ABC-01-113,3,AREASCOR,Area Score (0-6),AAPASI,LOWER EXTREMITIES,1,1,1,,,4,WEEK 4,2007-01-03,30
ABC,QS,ABC-01-113,4,AREASCOR,Area Score (0-6),AAPASI,LOWER EXTREMITIES,1,1,1,,,6,WEEK 6,2007-01-22,49
ABC,QS,ABC-01-113,5,AREASCOR,Area Score (0-6),AAPASI,LOWER EXTREMITIES,1,1,1,,,8,WEEK 8,2007-02-07,65
ABC,QS,ABC-01-113,6,AREASCOR,Area Score (0-6),AAPASI,LOWER EXTREMITIES,1,1,1,,,12,WEEK 12,2007-03-06,92
ABC,QS,ABC-01-113,7,AREASCOR,Area Score (0-6),AAPASI,LOWER EXTREMITIES,1,1,1,,,16,WEEK 16,2007-04-03,120
ABC,QS,ABC-01-113,8,ERYTHEMA,Erythema (0-4),AAPASI,LOWER EXTREMITIES,2,2,2,Y,,1,DAY 1,2006-12-05,1
ABC,QS,ABC-01-113,9,ERYTHEMA,Erythema (0-4),AAPASI,LOWER EXTREMITIES,2,2,2,,,2,WEEK 2,2006-12-19,15
ABC,QS,ABC-01-113,10,ERYTHEMA,Erythema (0-4),AAPASI,LOWER EXTREMITIES,1,1,1,,,4,WEEK 4,2007-01-03,30
ABC,QS,ABC-01-113,11,ERYTHEMA,Erythema (0-4),AAPASI,LOWER EXTREMITIES,1,1,1,,,6,WEEK 6,2007-01-22,49
ABC,QS,ABC-01-113,12,ERYTHEMA,Erythema (0-4),AAPASI,LOWER EXTREMITIES,1,1,1,,,8,WEEK 8,2007-02-07,65
ABC,QS,ABC-01-113,13,ERYTHEMA,Erythema (0-4),AAPASI,LOWER EXTREMITIES,2,2,2,,,12,WEEK 12,2007-03-06,92
ABC,QS,ABC-01-113,14,ERYTHEMA,Erythema (0-4),AAPASI,LOWER EXTREMITIES,1,1,1,,,16,WEEK 16,2007-04-03,120
ABC,QS,ABC-01-113,15,SCALE,Scale (0-4),AAPASI,LOWER EXTREMITIES,3,3,3,Y,,1,DAY 1,2006-12-05,1
ABC,QS,ABC-01-113,16,SCALE,Scale (0-4),AAPASI,LOWER EXTREMITIES,1,1,1,,,2,WEEK 2,2006-12-19,15
ABC,QS,ABC-01-113,17,SCALE,Scale (0-4),AAPASI,LOWER EXTREMITIES,1,1,1,,,4,WEEK 4,2007-01-03,30
ABC,QS,ABC-01-113,18,SCALE,Scale (0-4),AAPASI,LOWER EXTREMITIES,1,1,1,,,6,WEEK 6,2007-01-22,49
ABC,QS,ABC-01-113,19,SCALE,Scale (0-4),AAPASI,LOWER EXTREMITIES,2,2,2,,,8,WEEK 8,2007-02-07,65
ABC,QS,ABC-01-113,20,SCALE,Scale (0-4),AAPASI,LOWER EXTREMITIES,2,2,2,,,12,WEEK 12,2007-03-06,92
ABC,QS,ABC-01-113,21,SCALE,Scale (0-4),AAPASI,LOWER EXTREMITIES,1,1,1,,,16,WEEK 16,2007-04-03,120
ABC,QS,ABC-01-113,22,THCKNESS,Induration (0-4),AAPASI,LOWER EXTREMITIES,3,3,3,Y,,1,DAY 1,2006-12-05,1
ABC,QS,ABC-01-113,23,THCKNESS,Induration (0-4),AAPASI,LOWER EXTREMITIES,1,1,1,,,2,WEEK 2,2006-12-19,15
ABC,QS,ABC-01-113,24,THCKNESS,Induration (0-4),AAPASI,LOWER EXTREMITIES,1,1,1,,,4,WEEK 4,2007-01-03,30
ABC,QS,ABC-01-113,25,THCKNESS,Induration (0-4),AAPASI,LOWER EXTREMITIES,1,1,1,,,6,WEEK 6,2007-01-22,49
ABC,QS,ABC-01-113,26,THCKNESS,Induration (0-4),AAPASI,LOWER EXTREMITIES,1,1,1,,,8,WEEK 8,2007-02-07,65
ABC,QS,ABC-01-113,27,THCKNESS,Induration (0-4),AAPASI,LOWER EXTREMITIES,1,1,1,,,12,WEEK 12,2007-03-06,92
ABC,QS,ABC-01-113,28,THCKNESS,Induration (0-4),AAPASI,LOWER EXTREMITIES,1,1,1,,,16,WEEK 16,2007-04-03,120
ABC,QS,ABC-01-113,29,AREASCOR,Area Score (0-6),AAPASI,TRUNK,1,1,1,Y,,1,DAY 1,2006-12-05,1
ABC,QS,ABC-01-113,30,AREASCOR,Area Score (0-6),AAPASI,TRUNK,1,1,1,,,2,WEEK 2,2006-12-19,15
ABC,QS,ABC-01-113,31,AREASCOR,Area Score (0-6),AAPASI,TRUNK,1,1,1,,,4,WEEK 4,2007-01-03,30
ABC,QS,ABC-01-113,32,AREASCOR,Area Score (0-6),AAPASI,TRUNK,1,1,1,,,6,WEEK 6,2007-01-22,49
ABC,QS,ABC-01-113,33,AREASCOR,Area Score (0-6),AAPASI,TRUNK,1,1,1,,,8,WEEK 8,2007-02-07,65
ABC,QS,ABC-01-113,34,AREASCOR,Area Score (0-6),AAPASI,TRUNK,1,1,1,,,12,WEEK 12,2007-03-06,92
ABC,QS,ABC-01-113,35,AREASCOR,Area Score (0-6),AAPASI,TRUNK,1,1,1,,,16,WEEK 16,2007-04-03,120
ABC,QS,ABC-01-113,36,ERYTHEMA,Erythema (0-4),AAPASI,TRUNK,1,1,1,Y,,1,DAY 1,2006-12-05,1
ABC,QS,ABC-01-113,37,ERYTHEMA,Erythema (0-4),AAPASI,TRUNK,2,2,2,,,2,WEEK 2,2006-12-19,15
ABC,QS,ABC-01-113,38,ERYTHEMA,Erythema (0-4),AAPASI,TRUNK,3,3,3,,,4,WEEK 4,2007-01-03,30
ABC,QS,ABC-01-113,39,ERYTHEMA,Erythema (0-4),AAPASI,TRUNK,3,3,3,,,6,WEEK 6,2007-01-22,49
ABC,QS,ABC-01-113,40,ERYTHEMA,Erythema (0-4),AAPASI,TRUNK,1,1,1,,,8,WEEK 8,2007-02-07,65
ABC,QS,ABC-01-113,41,ERYTHEMA,Erythema (0-4),AAPASI,TRUNK,1,1,1,,,12,WEEK 12,2007-03-06,92
ABC,QS,ABC-01-113,42,ERYTHEMA,Erythema (0-4),AAPASI,TRUNK,2,2,2,,,16,WEEK 16,2007-04-03,120
ABC,QS,ABC-01-113,43,SCALE,Scale (0-4),AAPASI,TRUNK,3,3,3,Y,,1,DAY 1,2006-12-05,1
ABC,QS,ABC-01-113,44,SCALE,Scale (0-4),AAPASI,TRUNK,2,2,2,,,2,WEEK 2,2006-12-19,15
ABC,QS,ABC-01-113,45,SCALE,Scale (0-4),AAPASI,TRUNK,3,3,3,,,4,WEEK 4,2007-01-03,30
ABC,QS,ABC-01-113,46,SCALE,Scale (0-4),AAPASI,TRUNK,3,3,3,,,6,WEEK 6,2007-01-22,49
ABC,QS,ABC-01-113,47,SCALE,Scale (0-4),AAPASI,TRUNK,2,2,2,,,8,WEEK 8,2007-02-07,65
ABC,QS,ABC-01-113,48,SCALE,Scale (0-4),AAPASI,TRUNK,2,2,2,,,12,WEEK 12,2007-03-06,92
ABC,QS,ABC-01-113,49,SCALE,Scale (0-4),AAPASI,TRUNK,2,2,2,,,16,WEEK 16,2007-04-03,120
ABC,QS,ABC-01-113,50,THCKNESS,Induration (0-4),AAPASI,TRUNK,3,3,3,Y,,1,DAY 1,2006-12-05,1
ABC,QS,ABC-01-113,51,THCKNESS,Induration (0-4),AAPASI,TRUNK,2,2,2,,,2,WEEK 2,2006-12-19,15
ABC,QS,ABC-01-113,52,THCKNESS,Induration (0-4),AAPASI,TRUNK,3,3,3,,,4,WEEK 4,2007-01-03,30
ABC,QS,ABC-01-113,53,THCKNESS,Induration (0-4),AAPASI,TRUNK,3,3,3,,,6,WEEK 6,2007-01-22,49
ABC,QS,ABC-01-113,54,THCKNESS,Induration (0-4),AAPASI,TRUNK,1,1,1,,,8,WEEK 8,2007-02-07,65
ABC,QS,ABC-01-113,55,THCKNESS,Induration (0-4),AAPASI,TRUNK,1,1,1,,,12,WEEK 12,2007-03-06,92
ABC,QS,ABC-01-113,56,THCKNESS,Induration (0-4),AAPASI,TRUNK,2,2,2,,,16,WEEK 16,2007-04-03,120
ABC,QS,ABC-01-113,57,AREASCOR,Area Score (0-6),AAPASI,UPPER EXTREMITIES,0,0,0,Y,,1,DAY 1,2006-12-05,1
ABC,QS,ABC-01-113,58,AREASCOR,Area Score (0-6),AAPASI,UPPER EXTREMITIES,0,0,0,,,2,WEEK 2,2006-12-19,15
ABC,QS,ABC-01-113,59,AREASCOR,Area Score (0-6),AAPASI,UPPER EXTREMITIES,1,1,1,,,4,WEEK 4,2007-01-03,30
ABC,QS,ABC-01-113,60,AREASCOR,Area Score (0-6),AAPASI,UPPER EXTREMITIES,1,1,1,,,6,WEEK 6,2007-01-22,49
ABC,QS,ABC-01-113,61,AREASCOR,Area Score (0-6),AAPASI,UPPER EXTREMITIES,1,1,1,,,8,WEEK 8,2007-02-07,65
ABC,QS,ABC-01-113,62,AREASCOR,Area Score (0-6),AAPASI,UPPER EXTREMITIES,0,0,0,,,12,WEEK 12,2007-03-06,92
ABC,QS,ABC-01-113,63,AREASCOR,Area Score (0-6),AAPASI,UPPER EXTREMITIES,0,0,0,,,16,WEEK 16,2007-04-03,120
ABC,QS,ABC-01-113,64,ERYTHEMA,Erythema (0-4),AAPASI,UPPER EXTREMITIES,0,0,0,Y,,1,DAY 1,2006-12-05,1
ABC,QS,ABC-01-113,65,ERYTHEMA,Erythema (0-4),AAPASI,UPPER EXTREMITIES,0,0,0,,,2,WEEK 2,2006-12-19,15
ABC,QS,ABC-01-113,66,ERYTHEMA,Erythema (0-4),AAPASI,UPPER EXTREMITIES,1,1,1,,,4,WEEK 4,2007-01-03,30
ABC,QS,ABC-01-113,67,ERYTHEMA,Erythema (0-4),AAPASI,UPPER EXTREMITIES,1,1,1,,,6,WEEK 6,2007-01-22,49
ABC,QS,ABC-01-113,68,ERYTHEMA,Erythema (0-4),AAPASI,UPPER EXTREMITIES,1,1,1,,,8,WEEK 8,2007-02-07,65
ABC,QS,ABC-01-113,69,ERYTHEMA,Erythema (0-4),AAPASI,UPPER EXTREMITIES,0,0,0,,,12,WEEK 12,2007-03-06,92
ABC,QS,ABC-01-113,70,ERYTHEMA,Erythema (0-4),AAPASI,UPPER EXTREMITIES,0,0,0,,,16,WEEK 16,2007-04-03,120
ABC,QS,ABC-01-113,71,SCALE,Scale (0-4),AAPASI,UPPER EXTREMITIES,0,0,0,Y,,1,DAY 1,2006-12-05,1
ABC,QS,ABC-01-113,72,SCALE,Scale (0-4),AAPASI,UPPER EXTREMITIES,0,0,0,,,2,WEEK 2,2006-12-19,15
ABC,QS,ABC-01-113,73,SCALE,Scale (0-4),AAPASI,UPPER EXTREMITIES,1,1,1,,,4,WEEK 4,2007-01-03,30
ABC,QS,ABC-01-113,74,SCALE,Scale (0-4),AAPASI,UPPER EXTREMITIES,1,1,1,,,6,WEEK 6,2007-01-22,49
ABC,QS,ABC-01-113,75,SCALE,Scale (0-4),AAPASI,UPPER EXTREMITIES,1,1,1,,,8,WEEK 8,2007-02-07,65
ABC,QS,ABC-01-113,76,SCALE,Scale (0-4),AAPASI,UPPER EXTREMITIES,0,0,0,,,12,WEEK 12,2007-03-06,92
ABC,QS,ABC-01-113,77,SCALE,Scale (0-4),AAPASI,UPPER EXTREMITIES,0,0,0,,,16,WEEK 16,2007-04-03,120
ABC,QS,ABC-01-113,78,THCKNESS,Induration (0-4),AAPASI,UPPER EXTREMITIES,0,0,0,Y,,1,DAY 1,2006-12-05,1
ABC,QS,ABC-01-113,79,THCKNESS,Induration (0-4),AAPASI,UPPER EXTREMITIES,0,0,0,,,2,WEEK 2,2006-12-19,15
ABC,QS,ABC-01-113,80,THCKNESS,Induration (0-4),AAPASI,UPPER EXTREMITIES,1,1,1,,,4,WEEK 4,2007-01-03,30
ABC,QS,ABC-01-113,81,THCKNESS,Induration (0-4),AAPASI,UPPER EXTREMITIES,1,1,1,,,6,WEEK 6,2007-01-22,49
ABC,QS,ABC-01-113,82,THCKNESS,Induration (0-4),AAPASI,UPPER EXTREMITIES,1,1,1,,,8,WEEK 8,2007-02-07,65
ABC,QS,ABC-01-113,83,THCKNESS,Induration (0-4),AAPASI,UPPER EXTREMITIES,0,0,0,,,12,WEEK 12,2007-03-06,92
ABC,QS,ABC-01-113,84,THCKNESS,Induration (0-4),AAPASI,UPPER EXTREMITIES,0,0,0,,,16,WEEK 16,2007-04-03,120
ABC,QS,ABC-01-113,85,PRURPS,Pruritus Point Scale,PRURITUS ASSESSMENT,,3,3,3,Y,,1,DAY 1,2006-12-05,1
ABC,QS,ABC-01-113,86,PRURPS,Pruritus Point Scale,PRURITUS ASSESSMENT,,2,2,2,,,2,WEEK 2,2006-12-19,15
ABC,QS,ABC-01-113,87,PRURPS,Pruritus Point Scale,PRURITUS ASSESSMENT,,1,1,1,,,4,WEEK 4,2007-01-03,30
ABC,QS,ABC-01-113,88,PRURPS,Pruritus Point Scale,PRURITUS ASSESSMENT,,3,3,3,,,6,WEEK 6,2007-01-22,49
ABC,QS,ABC-01-113,89,PRURPS,Pruritus Point Scale,PRURITUS ASSESSMENT,,3,3,3,,,8,WEEK 8,2007-02-07,65
ABC,QS,ABC-01-113,90,PRURPS,Pruritus Point Scale,PRURITUS ASSESSMENT,,3,3,3,,,12,WEEK 12,2007-03-06,92
ABC,QS,ABC-01-113,91,PRURPS,Pruritus Point Scale,PRURITUS ASSESSMENT,,3,3,3,,,16,WEEK 16,2007-04-03,120
ABC,QS,ABC-01-113,92,PSGA,PSGA Score,PSGA,,3,3,3,Y,,1,DAY 1,2006-12-05,1
ABC,QS,ABC-01-113,93,PSGA,PSGA Score,PSGA,,2,2,2,,,2,WEEK 2,2006-12-19,15
ABC,QS,ABC-01-113,94,PSGA,PSGA Score,PSGA,,1,1,1,,,4,WEEK 4,2007-01-03,30
ABC,QS,ABC-01-113,95,PSGA,PSGA Score,PSGA,,1,1,1,,,6,WEEK 6,2007-01-22,49
ABC,QS,ABC-01-113,96,PSGA,PSGA Score,PSGA,,1,1,1,,,8,WEEK 8,2007-02-07,65
ABC,QS,ABC-01-113,97,PSGA,PSGA Score,PSGA,,1,1,1,,,12,WEEK 12,2007-03-06,92
ABC,QS,ABC-01-113,98,PSGA,PSGA Score,PSGA,,1,1,1,,,16,WEEK 16,2007-04-03,120
ABC,QS,ABC-01-113,99,BODYAC,Body Area Code,PSI,PLAQUE 1,7,7,7,Y,,1,DAY 1,2006-12-05,1
ABC,QS,ABC-01-113,100,BODYAC,Body Area Code,PSI,PLAQUE 1,7,7,7,,,2,WEEK 2,2006-12-19,15
ABC,QS,ABC-01-113,101,BODYAC,Body Area Code,PSI,PLAQUE 1,7,7,7,,,4,WEEK 4,2007-01-03,30
ABC,QS,ABC-01-113,102,BODYAC,Body Area Code,PSI,PLAQUE 1,7,7,7,,,6,WEEK 6,2007-01-22,49
ABC,QS,ABC-01-113,103,BODYAC,Body Area Code,PSI,PLAQUE 1,7,7,7,,,8,WEEK 8,2007-02-07,65
ABC,QS,ABC-01-113,104,BODYAC,Body Area Code,PSI,PLAQUE 1,7,7,7,,,12,WEEK 12,2007-03-06,92
ABC,QS,ABC-01-113,105,BODYAC,Body Area Code,PSI,PLAQUE 1,7,7,7,,,16,WEEK 16,2007-04-03,120
ABC,QS,ABC-01-113,106,CPSS,CPSS,PSI,PLAQUE 1,8,8,8,Y,Y,1,DAY 1,2006-12-05,1
ABC,QS,ABC-01-113,107,CPSS,CPSS,PSI,PLAQUE 1,4,4,4,,Y,2,WEEK 2,2006-12-19,15
ABC,QS,ABC-01-113,108,CPSS,CPSS,PSI,PLAQUE 1,3,3,3,,Y,4,WEEK 4,2007-01-03,30
ABC,QS,ABC-01-113,109,CPSS,CPSS,PSI,PLAQUE 1,3,3,3,,Y,6,WEEK 6,2007-01-22,49
ABC,QS,ABC-01-113,110,CPSS,CPSS,PSI,PLAQUE 1,4,4,4,,Y,8,WEEK 8,2007-02-07,65
ABC,QS,ABC-01-113,111,CPSS,CPSS,PSI,PLAQUE 1,6,6,6,,Y,12,WEEK 12,2007-03-06,92
ABC,QS,ABC-01-113,112,CPSS,CPSS,PSI,PLAQUE 1,3,3,3,,Y,16,WEEK 16,2007-04-03,120
ABC,QS,ABC-01-113,113,ERYTHSS,Erythema Severity Score,PSI,PLAQUE 1,3,3,3,Y,,1,DAY 1,2006-12-05,1
ABC,QS,ABC-01-113,114,ERYTHSS,Erythema Severity Score,PSI,PLAQUE 1,2,2,2,,,2,WEEK 2,2006-12-19,15
ABC,QS,ABC-01-113,115,ERYTHSS,Erythema Severity Score,PSI,PLAQUE 1,1,1,1,,,4,WEEK 4,2007-01-03,30
ABC,QS,ABC-01-113,116,ERYTHSS,Erythema Severity Score,PSI,PLAQUE 1,1,1,1,,,6,WEEK 6,2007-01-22,49
ABC,QS,ABC-01-113,117,ERYTHSS,Erythema Severity Score,PSI,PLAQUE 1,1,1,1,,,8,WEEK 8,2007-02-07,65
ABC,QS,ABC-01-113,118,ERYTHSS,Erythema Severity Score,PSI,PLAQUE 1,2,2,2,,,12,WEEK 12,2007-03-06,92
ABC,QS,ABC-01-113,119,ERYTHSS,Erythema Severity Score,PSI,PLAQUE 1,1,1,1,,,16,WEEK 16,2007-04-03,120
ABC,QS,ABC-01-113,120,INDURSS,Induration Severity Score,PSI,PLAQUE 1,3,3,3,Y,,1,DAY 1,2006-12-05,1
ABC,QS,ABC-01-113,121,INDURSS,Induration Severity Score,PSI,PLAQUE 1,1,1,1,,,2,WEEK 2,2006-12-19,15
ABC,QS,ABC-01-113,122,INDURSS,Induration Severity Score,PSI,PLAQUE 1,1,1,1,,,4,WEEK 4,2007-01-03,30
ABC,QS,ABC-01-113,123,INDURSS,Induration Severity Score,PSI,PLAQUE 1,1,1,1,,,6,WEEK 6,2007-01-22,49
ABC,QS,ABC-01-113,124,INDURSS,Induration Severity Score,PSI,PLAQUE 1,1,1,1,,,8,WEEK 8,2007-02-07,65
ABC,QS,ABC-01-113,125,INDURSS,Induration Severity Score,PSI,PLAQUE 1,2,2,2,,,12,WEEK 12,2007-03-06,92
ABC,QS,ABC-01-113,126,INDURSS,Induration Severity Score,PSI,PLAQUE 1,1,1,1,,,16,WEEK 16,2007-04-03,120
ABC,QS,ABC-01-113,127,SCALSS,Scaling Severity Score,PSI,PLAQUE 1,2,2,2,Y,,1,DAY 1,2006-12-05,1
ABC,QS,ABC-01-113,128,SCALSS,Scaling Severity Score,PSI,PLAQUE 1,1,1,1,,,2,WEEK 2,2006-12-19,15
ABC,QS,ABC-01-113,129,SCALSS,Scaling Severity Score,PSI,PLAQUE 1,1,1,1,,,4,WEEK 4,2007-01-03,30
ABC,QS,ABC-01-113,130,SCALSS,Scaling Severity Score,PSI,PLAQUE 1,1,1,1,,,6,WEEK 6,2007-01-22,49
ABC,QS,ABC-01-113,131,SCALSS,Scaling Severity Score,PSI,PLAQUE 1,2,2,2,,,8,WEEK 8,2007-02-07,65
ABC,QS,ABC-01-113,132,SCALSS,Scaling Severity Score,PSI,PLAQUE 1,2,2,2,,,12,WEEK 12,2007-03-06,92
ABC,QS,ABC-01-113,133,SCALSS,Scaling Severity Score,PSI,PLAQUE 1,1,1,1,,,16,WEEK 16,2007-04-03,120
ABC,QS,ABC-01-113,134,BODYAC,Body Area Code,PSI,PLAQUE 2,10,10,10,Y,,1,DAY 1,2006-12-05,1
ABC,QS,ABC-01-113,135,BODYAC,Body Area Code,PSI,PLAQUE 2,10,10,10,,,2,WEEK 2,2006-12-19,15
ABC,QS,ABC-01-113,136,BODYAC,Body Area Code,PSI,PLAQUE 2,10,10,10,,,4,WEEK 4,2007-01-03,30
ABC,QS,ABC-01-113,137,BODYAC,Body Area Code,PSI,PLAQUE 2,10,10,10,,,6,WEEK 6,2007-01-22,49
ABC,QS,ABC-01-113,138,BODYAC,Body Area Code,PSI,PLAQUE 2,10,10,10,,,8,WEEK 8,2007-02-07,65
ABC,QS,ABC-01-113,139,BODYAC,Body Area Code,PSI,PLAQUE 2,10,10,10,,,12,WEEK 12,2007-03-06,92
ABC,QS,ABC-01-113,140,BODYAC,Body Area Code,PSI,PLAQUE 2,10,10,10,,,16,WEEK 16,2007-04-03,120
ABC,QS,ABC-01-113,141,CPSS,CPSS,PSI,PLAQUE 2,7,7,7,Y,Y,1,DAY 1,2006-12-05,1
ABC,QS,ABC-01-113,142,CPSS,CPSS,PSI,PLAQUE 2,5,5,5,,Y,2,WEEK 2,2006-12-19,15
ABC,QS,ABC-01-113,143,CPSS,CPSS,PSI,PLAQUE 2,3,3,3,,Y,4,WEEK 4,2007-01-03,30
ABC,QS,ABC-01-113,144,CPSS,CPSS,PSI,PLAQUE 2,3,3,3,,Y,6,WEEK 6,2007-01-22,49
ABC,QS,ABC-01-113,145,CPSS,CPSS,PSI,PLAQUE 2,4,4,4,,Y,8,WEEK 8,2007-02-07,65
ABC,QS,ABC-01-113,146,CPSS,CPSS,PSI,PLAQUE 2,3,3,3,,Y,12,WEEK 12,2007-03-06,92
ABC,QS,ABC-01-113,147,CPSS,CPSS,PSI,PLAQUE 2,3,3,3,,Y,16,WEEK 16,2007-04-03,120
ABC,QS,ABC-01-113,148,ERYTHSS,Erythema Severity Score,PSI,PLAQUE 2,2,2,2,Y,,1,DAY 1,2006-12-05,1
ABC,QS,ABC-01-113,149,ERYTHSS,Erythema Severity Score,PSI,PLAQUE 2,3,3,3,,,2,WEEK 2,2006-12-19,15
ABC,QS,ABC-01-113,150,ERYTHSS,Erythema Severity Score,PSI,PLAQUE 2,1,1,1,,,4,WEEK 4,2007-01-03,30
ABC,QS,ABC-01-113,151,ERYTHSS,Erythema Severity Score,PSI,PLAQUE 2,1,1,1,,,6,WEEK 6,2007-01-22,49
ABC,QS,ABC-01-113,152,ERYTHSS,Erythema Severity Score,PSI,PLAQUE 2,1,1,1,,,8,WEEK 8,2007-02-07,65
ABC,QS,ABC-01-113,153,ERYTHSS,Erythema Severity Score,PSI,PLAQUE 2,1,1,1,,,12,WEEK 12,2007-03-06,92
ABC,QS,ABC-01-113,154,ERYTHSS,Erythema Severity Score,PSI,PLAQUE 2,1,1,1,,,16,WEEK 16,2007-04-03,120
ABC,QS,ABC-01-113,155,INDURSS,Induration Severity Score,PSI,PLAQUE 2,3,3,3,Y,,1,DAY 1,2006-12-05,1
ABC,QS,ABC-01-113,156,INDURSS,Induration Severity Score,PSI,PLAQUE 2,2,2,2,,,2,WEEK 2,2006-12-19,15
ABC,QS,ABC-01-113,157,INDURSS,Induration Severity Score,PSI,PLAQUE 2,1,1,1,,,4,WEEK 4,2007-01-03,30
ABC,QS,ABC-01-113,158,INDURSS,Induration Severity Score,PSI,PLAQUE 2,1,1,1,,,6,WEEK 6,2007-01-22,49
ABC,QS,ABC-01-113,159,INDURSS,Induration Severity Score,PSI,PLAQUE 2,1,1,1,,,8,WEEK 8,2007-02-07,65
ABC,QS,ABC-01-113,160,INDURSS,Induration Severity Score,PSI,PLAQUE 2,1,1,1,,,12,WEEK 12,2007-03-06,92
ABC,QS,ABC-01-113,161,INDURSS,Induration Severity Score,PSI,PLAQUE 2,1,1,1,,,16,WEEK 16,2007-04-03,120
ABC,QS,ABC-01-113,162,SCALSS,Scaling Severity Score,PSI,PLAQUE 2,2,2,2,Y,,1,DAY 1,2006-12-05,1
ABC,QS,ABC-01-113,163,SCALSS,Scaling Severity Score,PSI,PLAQUE 2,0,0,0,,,2,WEEK 2,2006-12-19,15
ABC,QS,ABC-01-113,164,SCALSS,Scaling Severity Score,PSI,PLAQUE 2,1,1,1,,,4,WEEK 4,2007-01-03,30
ABC,QS,ABC-01-113,165,SCALSS,Scaling Severity Score,PSI,PLAQUE 2,1,1,1,,,6,WEEK 6,2007-01-22,49
ABC,QS,ABC-01-113,166,SCALSS,Scaling Severity Score,PSI,PLAQUE 2,2,2,2,,,8,WEEK 8,2007-02-07,65
ABC,QS,ABC-01-113,167,SCALSS,Scaling Severity Score,PSI,PLAQUE 2,1,1,1,,,12,WEEK 12,2007-03-06,92
ABC,QS,ABC-01-113,168,SCALSS,Scaling Severity Score,PSI,PLAQUE 2,1,1,1,,,16,WEEK 16,2007-04-03,120
ABC,QS,ABC-01-114,1,AREASCOR,Area Score (0-6),AAPASI,LOWER EXTREMITIES,2,2,2,Y,,1,DAY 1,2006-12-14,1
ABC,QS,ABC-01-114,2,AREASCOR,Area Score (0-6),AAPASI,LOWER EXTREMITIES,2,2,2,,,2,WEEK 2,2006-12-28,15
ABC,QS,ABC-01-114,3,AREASCOR,Area Score (0-6),AAPASI,LOWER EXTREMITIES,2,2,2,,,4,WEEK 4,2007-01-11,29
ABC,QS,ABC-01-114,4,AREASCOR,Area Score (0-6),AAPASI,LOWER EXTREMITIES,2,2,2,,,6,WEEK 6,2007-01-24,42
ABC,QS,ABC-01-114,5,AREASCOR,Area Score (0-6),AAPASI,LOWER EXTREMITIES,2,2,2,,,8,WEEK 8,2007-02-09,58
ABC,QS,ABC-01-114,6,AREASCOR,Area Score (0-6),AAPASI,LOWER EXTREMITIES,2,2,2,,,12,WEEK 12,2007-03-05,82
ABC,QS,ABC-01-114,7,AREASCOR,Area Score (0-6),AAPASI,LOWER EXTREMITIES,2,2,2,,,16,WEEK 16,2007-03-29,106
ABC,QS,ABC-01-114,8,ERYTHEMA,Erythema (0-4),AAPASI,LOWER EXTREMITIES,3,3,3,Y,,1,DAY 1,2006-12-14,1
ABC,QS,ABC-01-114,9,ERYTHEMA,Erythema (0-4),AAPASI,LOWER EXTREMITIES,2,2,2,,,2,WEEK 2,2006-12-28,15
ABC,QS,ABC-01-114,10,ERYTHEMA,Erythema (0-4),AAPASI,LOWER EXTREMITIES,3,3,3,,,4,WEEK 4,2007-01-11,29
ABC,QS,ABC-01-114,11,ERYTHEMA,Erythema (0-4),AAPASI,LOWER EXTREMITIES,2,2,2,,,6,WEEK 6,2007-01-24,42
ABC,QS,ABC-01-114,12,ERYTHEMA,Erythema (0-4),AAPASI,LOWER EXTREMITIES,2,2,2,,,8,WEEK 8,2007-02-09,58
ABC,QS,ABC-01-114,13,ERYTHEMA,Erythema (0-4),AAPASI,LOWER EXTREMITIES,2,2,2,,,12,WEEK 12,2007-03-05,82
ABC,QS,ABC-01-114,14,ERYTHEMA,Erythema (0-4),AAPASI,LOWER EXTREMITIES,2,2,2,,,16,WEEK 16,2007-03-29,106
ABC,QS,ABC-01-114,15,SCALE,Scale (0-4),AAPASI,LOWER EXTREMITIES,2,2,2,Y,,1,DAY 1,2006-12-14,1
ABC,QS,ABC-01-114,16,SCALE,Scale (0-4),AAPASI,LOWER EXTREMITIES,1,1,1,,,2,WEEK 2,2006-12-28,15
ABC,QS,ABC-01-114,17,SCALE,Scale (0-4),AAPASI,LOWER EXTREMITIES,2,2,2,,,4,WEEK 4,2007-01-11,29
ABC,QS,ABC-01-114,18,SCALE,Scale (0-4),AAPASI,LOWER EXTREMITIES,1,1,1,,,6,WEEK 6,2007-01-24,42
ABC,QS,ABC-01-114,19,SCALE,Scale (0-4),AAPASI,LOWER EXTREMITIES,1,1,1,,,8,WEEK 8,2007-02-09,58
ABC,QS,ABC-01-114,20,SCALE,Scale (0-4),AAPASI,LOWER EXTREMITIES,1,1,1,,,12,WEEK 12,2007-03-05,82
ABC,QS,ABC-01-114,21,SCALE,Scale (0-4),AAPASI,LOWER EXTREMITIES,1,1,1,,,16,WEEK 16,2007-03-29,106
ABC,QS,ABC-01-114,22,THCKNESS,Induration (0-4),AAPASI,LOWER EXTREMITIES,3,3,3,Y,,1,DAY 1,2006-12-14,1
ABC,QS,ABC-01-114,23,THCKNESS,Induration (0-4),AAPASI,LOWER EXTREMITIES,2,2,2,,,2,WEEK 2,2006-12-28,15
ABC,QS,ABC-01-114,24,THCKNESS,Induration (0-4),AAPASI,LOWER EXTREMITIES,3,3,3,,,4,WEEK 4,2007-01-11,29
ABC,QS,ABC-01-114,25,THCKNESS,Induration (0-4),AAPASI,LOWER EXTREMITIES,2,2,2,,,6,WEEK 6,2007-01-24,42
ABC,QS,ABC-01-114,26,THCKNESS,Induration (0-4),AAPASI,LOWER EXTREMITIES,2,2,2,,,8,WEEK 8,2007-02-09,58
ABC,QS,ABC-01-114,27,THCKNESS,Induration (0-4),AAPASI,LOWER EXTREMITIES,2,2,2,,,12,WEEK 12,2007-03-05,82
ABC,QS,ABC-01-114,28,THCKNESS,Induration (0-4),AAPASI,LOWER EXTREMITIES,2,2,2,,,16,WEEK 16,2007-03-29,106
ABC,QS,ABC-01-114,29,AREASCOR,Area Score (0-6),AAPASI,TRUNK,1,1,1,Y,,1,DAY 1,2006-12-14,1
ABC,QS,ABC-01-114,30,AREASCOR,Area Score (0-6),AAPASI,TRUNK,1,1,1,,,2,WEEK 2,2006-12-28,15
ABC,QS,ABC-01-114,31,AREASCOR,Area Score (0-6),AAPASI,TRUNK,1,1,1,,,4,WEEK 4,2007-01-11,29
ABC,QS,ABC-01-114,32,AREASCOR,Area Score (0-6),AAPASI,TRUNK,1,1,1,,,6,WEEK 6,2007-01-24,42
ABC,QS,ABC-01-114,33,AREASCOR,Area Score (0-6),AAPASI,TRUNK,1,1,1,,,8,WEEK 8,2007-02-09,58
ABC,QS,ABC-01-114,34,AREASCOR,Area Score (0-6),AAPASI,TRUNK,1,1,1,,,12,WEEK 12,2007-03-05,82
ABC,QS,ABC-01-114,35,AREASCOR,Area Score (0-6),AAPASI,TRUNK,1,1,1,,,16,WEEK 16,2007-03-29,106
ABC,QS,ABC-01-114,36,ERYTHEMA,Erythema (0-4),AAPASI,TRUNK,3,3,3,Y,,1,DAY 1,2006-12-14,1
ABC,QS,ABC-01-114,37,ERYTHEMA,Erythema (0-4),AAPASI,TRUNK,2,2,2,,,2,WEEK 2,2006-12-28,15
ABC,QS,ABC-01-114,38,ERYTHEMA,Erythema (0-4),AAPASI,TRUNK,3,3,3,,,4,WEEK 4,2007-01-11,29
ABC,QS,ABC-01-114,39,ERYTHEMA,Erythema (0-4),AAPASI,TRUNK,2,2,2,,,6,WEEK 6,2007-01-24,42
ABC,QS,ABC-01-114,40,ERYTHEMA,Erythema (0-4),AAPASI,TRUNK,2,2,2,,,8,WEEK 8,2007-02-09,58
ABC,QS,ABC-01-114,41,ERYTHEMA,Erythema (0-4),AAPASI,TRUNK,2,2,2,,,12,WEEK 12,2007-03-05,82
ABC,QS,ABC-01-114,42,ERYTHEMA,Erythema (0-4),AAPASI,TRUNK,2,2,2,,,16,WEEK 16,2007-03-29,106
ABC,QS,ABC-01-114,43,SCALE,Scale (0-4),AAPASI,TRUNK,2,2,2,Y,,1,DAY 1,2006-12-14,1
ABC,QS,ABC-01-114,44,SCALE,Scale (0-4),AAPASI,TRUNK,1,1,1,,,2,WEEK 2,2006-12-28,15
ABC,QS,ABC-01-114,45,SCALE,Scale (0-4),AAPASI,TRUNK,2,2,2,,,4,WEEK 4,2007-01-11,29
ABC,QS,ABC-01-114,46,SCALE,Scale (0-4),AAPASI,TRUNK,1,1,1,,,6,WEEK 6,2007-01-24,42
ABC,QS,ABC-01-114,47,SCALE,Scale (0-4),AAPASI,TRUNK,1,1,1,,,8,WEEK 8,2007-02-09,58
ABC,QS,ABC-01-114,48,SCALE,Scale (0-4),AAPASI,TRUNK,1,1,1,,,12,WEEK 12,2007-03-05,82
ABC,QS,ABC-01-114,49,SCALE,Scale (0-4),AAPASI,TRUNK,1,1,1,,,16,WEEK 16,2007-03-29,106
ABC,QS,ABC-01-114,50,THCKNESS,Induration (0-4),AAPASI,TRUNK,3,3,3,Y,,1,DAY 1,2006-12-14,1
ABC,QS,ABC-01-114,51,THCKNESS,Induration (0-4),AAPASI,TRUNK,2,2,2,,,2,WEEK 2,2006-12-28,15
ABC,QS,ABC-01-114,52,THCKNESS,Induration (0-4),AAPASI,TRUNK,3,3,3,,,4,WEEK 4,2007-01-11,29
ABC,QS,ABC-01-114,53,THCKNESS,Induration (0-4),AAPASI,TRUNK,2,2,2,,,6,WEEK 6,2007-01-24,42
ABC,QS,ABC-01-114,54,THCKNESS,Induration (0-4),AAPASI,TRUNK,2,2,2,,,8,WEEK 8,2007-02-09,58
ABC,QS,ABC-01-114,55,THCKNESS,Induration (0-4),AAPASI,TRUNK,2,2,2,,,12,WEEK 12,2007-03-05,82
ABC,QS,ABC-01-114,56,THCKNESS,Induration (0-4),AAPASI,TRUNK,2,2,2,,,16,WEEK 16,2007-03-29,106
ABC,QS,ABC-01-114,57,AREASCOR,Area Score (0-6),AAPASI,UPPER EXTREMITIES,2,2,2,Y,,1,DAY 1,2006-12-14,1
ABC,QS,ABC-01-114,58,AREASCOR,Area Score (0-6),AAPASI,UPPER EXTREMITIES,2,2,2,,,2,WEEK 2,2006-12-28,15
ABC,QS,ABC-01-114,59,AREASCOR,Area Score (0-6),AAPASI,UPPER EXTREMITIES,2,2,2,,,4,WEEK 4,2007-01-11,29
ABC,QS,ABC-01-114,60,AREASCOR,Area Score (0-6),AAPASI,UPPER EXTREMITIES,2,2,2,,,6,WEEK 6,2007-01-24,42
ABC,QS,ABC-01-114,61,AREASCOR,Area Score (0-6),AAPASI,UPPER EXTREMITIES,2,2,2,,,8,WEEK 8,2007-02-09,58
ABC,QS,ABC-01-114,62,AREASCOR,Area Score (0-6),AAPASI,UPPER EXTREMITIES,2,2,2,,,12,WEEK 12,2007-03-05,82
ABC,QS,ABC-01-114,63,AREASCOR,Area Score (0-6),AAPASI,UPPER EXTREMITIES,2,2,2,,,16,WEEK 16,2007-03-29,106
ABC,QS,ABC-01-114,64,ERYTHEMA,Erythema (0-4),AAPASI,UPPER EXTREMITIES,3,3,3,Y,,1,DAY 1,2006-12-14,1
ABC,QS,ABC-01-114,65,ERYTHEMA,Erythema (0-4),AAPASI,UPPER EXTREMITIES,2,2,2,,,2,WEEK 2,2006-12-28,15
ABC,QS,ABC-01-114,66,ERYTHEMA,Erythema (0-4),AAPASI,UPPER EXTREMITIES,3,3,3,,,4,WEEK 4,2007-01-11,29
ABC,QS,ABC-01-114,67,ERYTHEMA,Erythema (0-4),AAPASI,UPPER EXTREMITIES,2,2,2,,,6,WEEK 6,2007-01-24,42
ABC,QS,ABC-01-114,68,ERYTHEMA,Erythema (0-4),AAPASI,UPPER EXTREMITIES,2,2,2,,,8,WEEK 8,2007-02-09,58
ABC,QS,ABC-01-114,69,ERYTHEMA,Erythema (0-4),AAPASI,UPPER EXTREMITIES,2,2,2,,,12,WEEK 12,2007-03-05,82
ABC,QS,ABC-01-114,70,ERYTHEMA,Erythema (0-4),AAPASI,UPPER EXTREMITIES,2,2,2,,,16,WEEK 16,2007-03-29,106
ABC,QS,ABC-01-114,71,SCALE,Scale (0-4),AAPASI,UPPER EXTREMITIES,2,2,2,Y,,1,DAY 1,2006-12-14,1
ABC,QS,ABC-01-114,72,SCALE,Scale (0-4),AAPASI,UPPER EXTREMITIES,1,1,1,,,2,WEEK 2,2006-12-28,15
ABC,QS,ABC-01-114,73,SCALE,Scale (0-4),AAPASI,UPPER EXTREMITIES,2,2,2,,,4,WEEK 4,2007-01-11,29
ABC,QS,ABC-01-114,74,SCALE,Scale (0-4),AAPASI,UPPER EXTREMITIES,1,1,1,,,6,WEEK 6,2007-01-24,42
ABC,QS,ABC-01-114,75,SCALE,Scale (0-4),AAPASI,UPPER EXTREMITIES,1,1,1,,,8,WEEK 8,2007-02-09,58
ABC,QS,ABC-01-114,76,SCALE,Scale (0-4),AAPASI,UPPER EXTREMITIES,1,1,1,,,12,WEEK 12,2007-03-05,82
ABC,QS,ABC-01-114,77,SCALE,Scale (0-4),AAPASI,UPPER EXTREMITIES,1,1,1,,,16,WEEK 16,2007-03-29,106
ABC,QS,ABC-01-114,78,THCKNESS,Induration (0-4),AAPASI,UPPER EXTREMITIES,3,3,3,Y,,1,DAY 1,2006-12-14,1
ABC,QS,ABC-01-114,79,THCKNESS,Induration (0-4),AAPASI,UPPER EXTREMITIES,2,2,2,,,2,WEEK 2,2006-12-28,15
ABC,QS,ABC-01-114,80,THCKNESS,Induration (0-4),AAPASI,UPPER EXTREMITIES,2,2,2,,,4,WEEK 4,2007-01-11,29
ABC,QS,ABC-01-114,81,THCKNESS,Induration (0-4),AAPASI,UPPER EXTREMITIES,2,2,2,,,6,WEEK 6,2007-01-24,42
ABC,QS,ABC-01-114,82,THCKNESS,Induration (0-4),AAPASI,UPPER EXTREMITIES,2,2,2,,,8,WEEK 8,2007-02-09,58
ABC,QS,ABC-01-114,83,THCKNESS,Induration (0-4),AAPASI,UPPER EXTREMITIES,2,2,2,,,12,WEEK 12,2007-03-05,82
ABC,QS,ABC-01-114,84,THCKNESS,Induration (0-4),AAPASI,UPPER EXTREMITIES,2,2,2,,,16,WEEK 16,2007-03-29,106
ABC,QS,ABC-01-114,85,PRURPS,Pruritus Point Scale,PRURITUS ASSESSMENT,,2,2,2,Y,,1,DAY 1,2006-12-14,1
ABC,QS,ABC-01-114,86,PRURPS,Pruritus Point Scale,PRURITUS ASSESSMENT,,1,1,1,,,2,WEEK 2,2006-12-28,15
ABC,QS,ABC-01-114,87,PRURPS,Pruritus Point Scale,PRURITUS ASSESSMENT,,2,2,2,,,4,WEEK 4,2007-01-11,29
ABC,QS,ABC-01-114,88,PRURPS,Pruritus Point Scale,PRURITUS ASSESSMENT,,3,3,3,,,6,WEEK 6,2007-01-24,42
ABC,QS,ABC-01-114,89,PRURPS,Pruritus Point Scale,PRURITUS ASSESSMENT,,2,2,2,,,8,WEEK 8,2007-02-09,58
ABC,QS,ABC-01-114,90,PRURPS,Pruritus Point Scale,PRURITUS ASSESSMENT,,2,2,2,,,12,WEEK 12,2007-03-05,82
ABC,QS,ABC-01-114,91,PRURPS,Pruritus Point Scale,PRURITUS ASSESSMENT,,2,2,2,,,16,WEEK 16,2007-03-29,106
ABC,QS,ABC-01-114,92,PSGA,PSGA Score,PSGA,,3,3,3,Y,,1,DAY 1,2006-12-14,1
ABC,QS,ABC-01-114,93,PSGA,PSGA Score,PSGA,,2,2,2,,,2,WEEK 2,2006-12-28,15
ABC,QS,ABC-01-114,94,PSGA,PSGA Score,PSGA,,3,3,3,,,4,WEEK 4,2007-01-11,29
ABC,QS,ABC-01-114,95,PSGA,PSGA Score,PSGA,,2,2,2,,,6,WEEK 6,2007-01-24,42
ABC,QS,ABC-01-114,96,PSGA,PSGA Score,PSGA,,2,2,2,,,8,WEEK 8,2007-02-09,58
ABC,QS,ABC-01-114,97,PSGA,PSGA Score,PSGA,,2,2,2,,,12,WEEK 12,2007-03-05,82
ABC,QS,ABC-01-114,98,PSGA,PSGA Score,PSGA,,2,2,2,,,16,WEEK 16,2007-03-29,106
ABC,QS,ABC-01-114,99,BODYAC,Body Area Code,PSI,PLAQUE 1,7,7,7,Y,,1,DAY 1,2006-12-14,1
ABC,QS,ABC-01-114,100,BODYAC,Body Area Code,PSI,PLAQUE 1,7,7,7,,,2,WEEK 2,2006-12-28,15
ABC,QS,ABC-01-114,101,BODYAC,Body Area Code,PSI,PLAQUE 1,7,7,7,,,4,WEEK 4,2007-01-11,29
ABC,QS,ABC-01-114,102,BODYAC,Body Area Code,PSI,PLAQUE 1,7,7,7,,,6,WEEK 6,2007-01-24,42
ABC,QS,ABC-01-114,103,BODYAC,Body Area Code,PSI,PLAQUE 1,7,7,7,,,8,WEEK 8,2007-02-09,58
ABC,QS,ABC-01-114,104,BODYAC,Body Area Code,PSI,PLAQUE 1,7,7,7,,,12,WEEK 12,2007-03-05,82
ABC,QS,ABC-01-114,105,BODYAC,Body Area Code,PSI,PLAQUE 1,7,7,7,,,16,WEEK 16,2007-03-29,106
ABC,QS,ABC-01-114,106,CPSS,CPSS,PSI,PLAQUE 1,8,8,8,Y,Y,1,DAY 1,2006-12-14,1
ABC,QS,ABC-01-114,107,CPSS,CPSS,PSI,PLAQUE 1,5,5,5,,Y,2,WEEK 2,2006-12-28,15
ABC,QS,ABC-01-114,108,CPSS,CPSS,PSI,PLAQUE 1,7,7,7,,Y,4,WEEK 4,2007-01-11,29
ABC,QS,ABC-01-114,109,CPSS,CPSS,PSI,PLAQUE 1,5,5,5,,Y,6,WEEK 6,2007-01-24,42
ABC,QS,ABC-01-114,110,CPSS,CPSS,PSI,PLAQUE 1,6,6,6,,Y,8,WEEK 8,2007-02-09,58
ABC,QS,ABC-01-114,111,CPSS,CPSS,PSI,PLAQUE 1,6,6,6,,Y,12,WEEK 12,2007-03-05,82
ABC,QS,ABC-01-114,112,CPSS,CPSS,PSI,PLAQUE 1,6,6,6,,Y,16,WEEK 16,2007-03-29,106
ABC,QS,ABC-01-114,113,ERYTHSS,Erythema Severity Score,PSI,PLAQUE 1,3,3,3,Y,,1,DAY 1,2006-12-14,1
ABC,QS,ABC-01-114,114,ERYTHSS,Erythema Severity Score,PSI,PLAQUE 1,2,2,2,,,2,WEEK 2,2006-12-28,15
ABC,QS,ABC-01-114,115,ERYTHSS,Erythema Severity Score,PSI,PLAQUE 1,3,3,3,,,4,WEEK 4,2007-01-11,29
ABC,QS,ABC-01-114,116,ERYTHSS,Erythema Severity Score,PSI,PLAQUE 1,2,2,2,,,6,WEEK 6,2007-01-24,42
ABC,QS,ABC-01-114,117,ERYTHSS,Erythema Severity Score,PSI,PLAQUE 1,3,3,3,,,8,WEEK 8,2007-02-09,58
ABC,QS,ABC-01-114,118,ERYTHSS,Erythema Severity Score,PSI,PLAQUE 1,3,3,3,,,12,WEEK 12,2007-03-05,82
ABC,QS,ABC-01-114,119,ERYTHSS,Erythema Severity Score,PSI,PLAQUE 1,3,3,3,,,16,WEEK 16,2007-03-29,106
ABC,QS,ABC-01-114,120,INDURSS,Induration Severity Score,PSI,PLAQUE 1,3,3,3,Y,,1,DAY 1,2006-12-14,1
ABC,QS,ABC-01-114,121,INDURSS,Induration Severity Score,PSI,PLAQUE 1,2,2,2,,,2,WEEK 2,2006-12-28,15
ABC,QS,ABC-01-114,122,INDURSS,Induration Severity Score,PSI,PLAQUE 1,2,2,2,,,4,WEEK 4,2007-01-11,29
ABC,QS,ABC-01-114,123,INDURSS,Induration Severity Score,PSI,PLAQUE 1,2,2,2,,,6,WEEK 6,2007-01-24,42
ABC,QS,ABC-01-114,124,INDURSS,Induration Severity Score,PSI,PLAQUE 1,2,2,2,,,8,WEEK 8,2007-02-09,58
ABC,QS,ABC-01-114,125,INDURSS,Induration Severity Score,PSI,PLAQUE 1,2,2,2,,,12,WEEK 12,2007-03-05,82
ABC,QS,ABC-01-114,126,INDURSS,Induration Severity Score,PSI,PLAQUE 1,2,2,2,,,16,WEEK 16,2007-03-29,106
ABC,QS,ABC-01-114,127,SCALSS,Scaling Severity Score,PSI,PLAQUE 1,2,2,2,Y,,1,DAY 1,2006-12-14,1
ABC,QS,ABC-01-114,128,SCALSS,Scaling Severity Score,PSI,PLAQUE 1,1,1,1,,,2,WEEK 2,2006-12-28,15
ABC,QS,ABC-01-114,129,SCALSS,Scaling Severity Score,PSI,PLAQUE 1,2,2,2,,,4,WEEK 4,2007-01-11,29
ABC,QS,ABC-01-114,130,SCALSS,Scaling Severity Score,PSI,PLAQUE 1,1,1,1,,,6,WEEK 6,2007-01-24,42
ABC,QS,ABC-01-114,131,SCALSS,Scaling Severity Score,PSI,PLAQUE 1,1,1,1,,,8,WEEK 8,2007-02-09,58
ABC,QS,ABC-01-114,132,SCALSS,Scaling Severity Score,PSI,PLAQUE 1,1,1,1,,,12,WEEK 12,2007-03-05,82
ABC,QS,ABC-01-114,133,SCALSS,Scaling Severity Score,PSI,PLAQUE 1,1,1,1,,,16,WEEK 16,2007-03-29,106
ABC,QS,ABC-01-114,134,BODYAC,Body Area Code,PSI,PLAQUE 2,10,10,10,Y,,1,DAY 1,2006-12-14,1
ABC,QS,ABC-01-114,135,BODYAC,Body Area Code,PSI,PLAQUE 2,10,10,10,,,2,WEEK 2,2006-12-28,15
ABC,QS,ABC-01-114,136,BODYAC,Body Area Code,PSI,PLAQUE 2,10,10,10,,,4,WEEK 4,2007-01-11,29
ABC,QS,ABC-01-114,137,BODYAC,Body Area Code,PSI,PLAQUE 2,10,10,10,,,6,WEEK 6,2007-01-24,42
ABC,QS,ABC-01-114,138,BODYAC,Body Area Code,PSI,PLAQUE 2,10,10,10,,,8,WEEK 8,2007-02-09,58
ABC,QS,ABC-01-114,139,BODYAC,Body Area Code,PSI,PLAQUE 2,10,10,10,,,12,WEEK 12,2007-03-05,82
ABC,QS,ABC-01-114,140,BODYAC,Body Area Code,PSI,PLAQUE 2,10,10,10,,,16,WEEK 16,2007-03-29,106
ABC,QS,ABC-01-114,141,CPSS,CPSS,PSI,PLAQUE 2,8,8,8,Y,Y,1,DAY 1,2006-12-14,1
ABC,QS,ABC-01-114,142,CPSS,CPSS,PSI,PLAQUE 2,7,7,7,,Y,2,WEEK 2,2006-12-28,15
ABC,QS,ABC-01-114,143,CPSS,CPSS,PSI,PLAQUE 2,7,7,7,,Y,4,WEEK 4,2007-01-11,29
ABC,QS,ABC-01-114,144,CPSS,CPSS,PSI,PLAQUE 2,5,5,5,,Y,6,WEEK 6,2007-01-24,42
ABC,QS,ABC-01-114,145,CPSS,CPSS,PSI,PLAQUE 2,6,6,6,,Y,8,WEEK 8,2007-02-09,58
ABC,QS,ABC-01-114,146,CPSS,CPSS,PSI,PLAQUE 2,6,6,6,,Y,12,WEEK 12,2007-03-05,82
ABC,QS,ABC-01-114,147,CPSS,CPSS,PSI,PLAQUE 2,6,6,6,,Y,16,WEEK 16,2007-03-29,106
ABC,QS,ABC-01-114,148,ERYTHSS,Erythema Severity Score,PSI,PLAQUE 2,3,3,3,Y,,1,DAY 1,2006-12-14,1
ABC,QS,ABC-01-114,149,ERYTHSS,Erythema Severity Score,PSI,PLAQUE 2,3,3,3,,,2,WEEK 2,2006-12-28,15
ABC,QS,ABC-01-114,150,ERYTHSS,Erythema Severity Score,PSI,PLAQUE 2,3,3,3,,,4,WEEK 4,2007-01-11,29
ABC,QS,ABC-01-114,151,ERYTHSS,Erythema Severity Score,PSI,PLAQUE 2,2,2,2,,,6,WEEK 6,2007-01-24,42
ABC,QS,ABC-01-114,152,ERYTHSS,Erythema Severity Score,PSI,PLAQUE 2,3,3,3,,,8,WEEK 8,2007-02-09,58
ABC,QS,ABC-01-114,153,ERYTHSS,Erythema Severity Score,PSI,PLAQUE 2,3,3,3,,,12,WEEK 12,2007-03-05,82
ABC,QS,ABC-01-114,154,ERYTHSS,Erythema Severity Score,PSI,PLAQUE 2,3,3,3,,,16,WEEK 16,2007-03-29,106
ABC,QS,ABC-01-114,155,INDURSS,Induration Severity Score,PSI,PLAQUE 2,3,3,3,Y,,1,DAY 1,2006-12-14,1
ABC,QS,ABC-01-114,156,INDURSS,Induration Severity Score,PSI,PLAQUE 2,3,3,3,,,2,WEEK 2,2006-12-28,15
ABC,QS,ABC-01-114,157,INDURSS,Induration Severity Score,PSI,PLAQUE 2,2,2,2,,,4,WEEK 4,2007-01-11,29
ABC,QS,ABC-01-114,158,INDURSS,Induration Severity Score,PSI,PLAQUE 2,2,2,2,,,6,WEEK 6,2007-01-24,42
ABC,QS,ABC-01-114,159,INDURSS,Induration Severity Score,PSI,PLAQUE 2,2,2,2,,,8,WEEK 8,2007-02-09,58
ABC,QS,ABC-01-114,160,INDURSS,Induration Severity Score,PSI,PLAQUE 2,2,2,2,,,12,WEEK 12,2007-03-05,82
ABC,QS,ABC-01-114,161,INDURSS,Induration Severity Score,PSI,PLAQUE 2,2,2,2,,,16,WEEK 16,2007-03-29,106
ABC,QS,ABC-01-114,162,SCALSS,Scaling Severity Score,PSI,PLAQUE 2,2,2,2,Y,,1,DAY 1,2006-12-14,1
ABC,QS,ABC-01-114,163,SCALSS,Scaling Severity Score,PSI,PLAQUE 2,1,1,1,,,2,WEEK 2,2006-12-28,15
ABC,QS,ABC-01-114,164,SCALSS,Scaling Severity Score,PSI,PLAQUE 2,2,2,2,,,4,WEEK 4,2007-01-11,29
ABC,QS,ABC-01-114,165,SCALSS,Scaling Severity Score,PSI,PLAQUE 2,1,1,1,,,6,WEEK 6,2007-01-24,42
ABC,QS,ABC-01-114,166,SCALSS,Scaling Severity Score,PSI,PLAQUE 2,1,1,1,,,8,WEEK 8,2007-02-09,58
ABC,QS,ABC-01-114,167,SCALSS,Scaling Severity Score,PSI,PLAQUE 2,1,1,1,,,12,WEEK 12,2007-03-05,82
ABC,QS,ABC-01-114,168,SCALSS,Scaling Severity Score,PSI,PLAQUE 2,1,1,1,,,16,WEEK 16,2007-03-29,106
ABC,QS,ABC-02-033,1,AREASCOR,Area Score (0-6),AAPASI,LOWER EXTREMITIES,1,1,1,Y,,1,DAY 1,2006-10-25,1
ABC,QS,ABC-02-033,2,AREASCOR,Area Score (0-6),AAPASI,LOWER EXTREMITIES,1,1,1,,,2,WEEK 2,2006-11-07,14
ABC,QS,ABC-02-033,3,AREASCOR,Area Score (0-6),AAPASI,LOWER EXTREMITIES,1,1,1,,,4,WEEK 4,2006-11-21,28
ABC,QS,ABC-02-033,4,AREASCOR,Area Score (0-6),AAPASI,LOWER EXTREMITIES,1,1,1,,,6,WEEK 6,2006-12-06,43
ABC,QS,ABC-02-033,5,AREASCOR,Area Score (0-6),AAPASI,LOWER EXTREMITIES,1,1,1,,,8,WEEK 8,2006-12-19,56
ABC,QS,ABC-02-033,6,AREASCOR,Area Score (0-6),AAPASI,LOWER EXTREMITIES,2,2,2,,,12,WEEK 12,2007-01-17,85
ABC,QS,ABC-02-033,7,AREASCOR,Area Score (0-6),AAPASI,LOWER EXTREMITIES,1,1,1,,,16,WEEK 16,2007-02-13,112
ABC,QS,ABC-02-033,8,ERYTHEMA,Erythema (0-4),AAPASI,LOWER EXTREMITIES,2,2,2,Y,,1,DAY 1,2006-10-25,1
ABC,QS,ABC-02-033,9,ERYTHEMA,Erythema (0-4),AAPASI,LOWER EXTREMITIES,2,2,2,,,2,WEEK 2,2006-11-07,14
ABC,QS,ABC-02-033,10,ERYTHEMA,Erythema (0-4),AAPASI,LOWER EXTREMITIES,1,1,1,,,4,WEEK 4,2006-11-21,28
ABC,QS,ABC-02-033,11,ERYTHEMA,Erythema (0-4),AAPASI,LOWER EXTREMITIES,2,2,2,,,6,WEEK 6,2006-12-06,43
ABC,QS,ABC-02-033,12,ERYTHEMA,Erythema (0-4),AAPASI,LOWER EXTREMITIES,2,2,2,,,8,WEEK 8,2006-12-19,56
ABC,QS,ABC-02-033,13,ERYTHEMA,Erythema (0-4),AAPASI,LOWER EXTREMITIES,2,2,2,,,12,WEEK 12,2007-01-17,85
ABC,QS,ABC-02-033,14,ERYTHEMA,Erythema (0-4),AAPASI,LOWER EXTREMITIES,3,3,3,,,16,WEEK 16,2007-02-13,112
ABC,QS,ABC-02-033,15,SCALE,Scale (0-4),AAPASI,LOWER EXTREMITIES,2,2,2,Y,,1,DAY 1,2006-10-25,1
ABC,QS,ABC-02-033,16,SCALE,Scale (0-4),AAPASI,LOWER EXTREMITIES,2,2,2,,,2,WEEK 2,2006-11-07,14
ABC,QS,ABC-02-033,17,SCALE,Scale (0-4),AAPASI,LOWER EXTREMITIES,2,2,2,,,4,WEEK 4,2006-11-21,28
ABC,QS,ABC-02-033,18,SCALE,Scale (0-4),AAPASI,LOWER EXTREMITIES,2,2,2,,,6,WEEK 6,2006-12-06,43
ABC,QS,ABC-02-033,19,SCALE,Scale (0-4),AAPASI,LOWER EXTREMITIES,2,2,2,,,8,WEEK 8,2006-12-19,56
ABC,QS,ABC-02-033,20,SCALE,Scale (0-4),AAPASI,LOWER EXTREMITIES,2,2,2,,,12,WEEK 12,2007-01-17,85
ABC,QS,ABC-02-033,21,SCALE,Scale (0-4),AAPASI,LOWER EXTREMITIES,3,3,3,,,16,WEEK 16,2007-02-13,112
ABC,QS,ABC-02-033,22,THCKNESS,Induration (0-4),AAPASI,LOWER EXTREMITIES,2,2,2,Y,,1,DAY 1,2006-10-25,1
ABC,QS,ABC-02-033,23,THCKNESS,Induration (0-4),AAPASI,LOWER EXTREMITIES,2,2,2,,,2,WEEK 2,2006-11-07,14
ABC,QS,ABC-02-033,24,THCKNESS,Induration (0-4),AAPASI,LOWER EXTREMITIES,2,2,2,,,4,WEEK 4,2006-11-21,28
ABC,QS,ABC-02-033,25,THCKNESS,Induration (0-4),AAPASI,LOWER EXTREMITIES,2,2,2,,,6,WEEK 6,2006-12-06,43
ABC,QS,ABC-02-033,26,THCKNESS,Induration (0-4),AAPASI,LOWER EXTREMITIES,1,1,1,,,8,WEEK 8,2006-12-19,56
ABC,QS,ABC-02-033,27,THCKNESS,Induration (0-4),AAPASI,LOWER EXTREMITIES,1,1,1,,,12,WEEK 12,2007-01-17,85
ABC,QS,ABC-02-033,28,THCKNESS,Induration (0-4),AAPASI,LOWER EXTREMITIES,1,1,1,,,16,WEEK 16,2007-02-13,112
ABC,QS,ABC-02-033,29,AREASCOR,Area Score (0-6),AAPASI,TRUNK,1,1,1,Y,,1,DAY 1,2006-10-25,1
ABC,QS,ABC-02-033,30,AREASCOR,Area Score (0-6),AAPASI,TRUNK,1,1,1,,,2,WEEK 2,2006-11-07,14
ABC,QS,ABC-02-033,31,AREASCOR,Area Score (0-6),AAPASI,TRUNK,1,1,1,,,4,WEEK 4,2006-11-21,28
ABC,QS,ABC-02-033,32,AREASCOR,Area Score (0-6),AAPASI,TRUNK,1,1,1,,,6,WEEK 6,2006-12-06,43
ABC,QS,ABC-02-033,33,AREASCOR,Area Score (0-6),AAPASI,TRUNK,1,1,1,,,8,WEEK 8,2006-12-19,56
ABC,QS,ABC-02-033,34,AREASCOR,Area Score (0-6),AAPASI,TRUNK,1,1,1,,,12,WEEK 12,2007-01-17,85
ABC,QS,ABC-02-033,35,AREASCOR,Area Score (0-6),AAPASI,TRUNK,1,1,1,,,16,WEEK 16,2007-02-13,112
ABC,QS,ABC-02-033,36,ERYTHEMA,Erythema (0-4),AAPASI,TRUNK,2,2,2,Y,,1,DAY 1,2006-10-25,1
ABC,QS,ABC-02-033,37,ERYTHEMA,Erythema (0-4),AAPASI,TRUNK,2,2,2,,,2,WEEK 2,2006-11-07,14
ABC,QS,ABC-02-033,38,ERYTHEMA,Erythema (0-4),AAPASI,TRUNK,2,2,2,,,4,WEEK 4,2006-11-21,28
ABC,QS,ABC-02-033,39,ERYTHEMA,Erythema (0-4),AAPASI,TRUNK,2,2,2,,,6,WEEK 6,2006-12-06,43
ABC,QS,ABC-02-033,40,ERYTHEMA,Erythema (0-4),AAPASI,TRUNK,2,2,2,,,8,WEEK 8,2006-12-19,56
ABC,QS,ABC-02-033,41,ERYTHEMA,Erythema (0-4),AAPASI,TRUNK,2,2,2,,,12,WEEK 12,2007-01-17,85
ABC,QS,ABC-02-033,42,ERYTHEMA,Erythema (0-4),AAPASI,TRUNK,3,3,3,,,16,WEEK 16,2007-02-13,112
ABC,QS,ABC-02-033,43,SCALE,Scale (0-4),AAPASI,TRUNK,3,3,3,Y,,1,DAY 1,2006-10-25,1
ABC,QS,ABC-02-033,44,SCALE,Scale (0-4),AAPASI,TRUNK,3,3,3,,,2,WEEK 2,2006-11-07,14
ABC,QS,ABC-02-033,45,SCALE,Scale (0-4),AAPASI,TRUNK,2,2,2,,,4,WEEK 4,2006-11-21,28
ABC,QS,ABC-02-033,46,SCALE,Scale (0-4),AAPASI,TRUNK,3,3,3,,,6,WEEK 6,2006-12-06,43
ABC,QS,ABC-02-033,47,SCALE,Scale (0-4),AAPASI,TRUNK,2,2,2,,,8,WEEK 8,2006-12-19,56
ABC,QS,ABC-02-033,48,SCALE,Scale (0-4),AAPASI,TRUNK,2,2,2,,,12,WEEK 12,2007-01-17,85
ABC,QS,ABC-02-033,49,SCALE,Scale (0-4),AAPASI,TRUNK,3,3,3,,,16,WEEK 16,2007-02-13,112
ABC,QS,ABC-02-033,50,THCKNESS,Induration (0-4),AAPASI,TRUNK,2,2,2,Y,,1,DAY 1,2006-10-25,1
ABC,QS,ABC-02-033,51,THCKNESS,Induration (0-4),AAPASI,TRUNK,2,2,2,,,2,WEEK 2,2006-11-07,14
ABC,QS,ABC-02-033,52,THCKNESS,Induration (0-4),AAPASI,TRUNK,2,2,2,,,4,WEEK 4,2006-11-21,28
ABC,QS,ABC-02-033,53,THCKNESS,Induration (0-4),AAPASI,TRUNK,2,2,2,,,6,WEEK 6,2006-12-06,43
ABC,QS,ABC-02-033,54,THCKNESS,Induration (0-4),AAPASI,TRUNK,1,1,1,,,8,WEEK 8,2006-12-19,56
ABC,QS,ABC-02-033,55,THCKNESS,Induration (0-4),AAPASI,TRUNK,1,1,1,,,12,WEEK 12,2007-01-17,85
ABC,QS,ABC-02-033,56,THCKNESS,Induration (0-4),AAPASI,TRUNK,2,2,2,,,16,WEEK 16,2007-02-13,112
ABC,QS,ABC-02-033,57,AREASCOR,Area Score (0-6),AAPASI,UPPER EXTREMITIES,1,1,1,Y,,1,DAY 1,2006-10-25,1
ABC,QS,ABC-02-033,58,AREASCOR,Area Score (0-6),AAPASI,UPPER EXTREMITIES,1,1,1,,,2,WEEK 2,2006-11-07,14
ABC,QS,ABC-02-033,59,AREASCOR,Area Score (0-6),AAPASI,UPPER EXTREMITIES,1,1,1,,,4,WEEK 4,2006-11-21,28
ABC,QS,ABC-02-033,60,AREASCOR,Area Score (0-6),AAPASI,UPPER EXTREMITIES,1,1,1,,,6,WEEK 6,2006-12-06,43
ABC,QS,ABC-02-033,61,AREASCOR,Area Score (0-6),AAPASI,UPPER EXTREMITIES,1,1,1,,,8,WEEK 8,2006-12-19,56
ABC,QS,ABC-02-033,62,AREASCOR,Area Score (0-6),AAPASI,UPPER EXTREMITIES,1,1,1,,,12,WEEK 12,2007-01-17,85
ABC,QS,ABC-02-033,63,AREASCOR,Area Score (0-6),AAPASI,UPPER EXTREMITIES,1,1,1,,,16,WEEK 16,2007-02-13,112
ABC,QS,ABC-02-033,64,ERYTHEMA,Erythema (0-4),AAPASI,UPPER EXTREMITIES,2,2,2,Y,,1,DAY 1,2006-10-25,1
ABC,QS,ABC-02-033,65,ERYTHEMA,Erythema (0-4),AAPASI,UPPER EXTREMITIES,2,2,2,,,2,WEEK 2,2006-11-07,14
ABC,QS,ABC-02-033,66,ERYTHEMA,Erythema (0-4),AAPASI,UPPER EXTREMITIES,2,2,2,,,4,WEEK 4,2006-11-21,28
ABC,QS,ABC-02-033,67,ERYTHEMA,Erythema (0-4),AAPASI,UPPER EXTREMITIES,2,2,2,,,6,WEEK 6,2006-12-06,43
ABC,QS,ABC-02-033,68,ERYTHEMA,Erythema (0-4),AAPASI,UPPER EXTREMITIES,2,2,2,,,8,WEEK 8,2006-12-19,56
ABC,QS,ABC-02-033,69,ERYTHEMA,Erythema (0-4),AAPASI,UPPER EXTREMITIES,2,2,2,,,12,WEEK 12,2007-01-17,85
ABC,QS,ABC-02-033,70,ERYTHEMA,Erythema (0-4),AAPASI,UPPER EXTREMITIES,2,2,2,,,16,WEEK 16,2007-02-13,112
ABC,QS,ABC-02-033,71,SCALE,Scale (0-4),AAPASI,UPPER EXTREMITIES,2,2,2,Y,,1,DAY 1,2006-10-25,1
ABC,QS,ABC-02-033,72,SCALE,Scale (0-4),AAPASI,UPPER EXTREMITIES,2,2,2,,,2,WEEK 2,2006-11-07,14
ABC,QS,ABC-02-033,73,SCALE,Scale (0-4),AAPASI,UPPER EXTREMITIES,2,2,2,,,4,WEEK 4,2006-11-21,28
ABC,QS,ABC-02-033,74,SCALE,Scale (0-4),AAPASI,UPPER EXTREMITIES,2,2,2,,,6,WEEK 6,2006-12-06,43
ABC,QS,ABC-02-033,75,SCALE,Scale (0-4),AAPASI,UPPER EXTREMITIES,2,2,2,,,8,WEEK 8,2006-12-19,56
ABC,QS,ABC-02-033,76,SCALE,Scale (0-4),AAPASI,UPPER EXTREMITIES,2,2,2,,,12,WEEK 12,2007-01-17,85
ABC,QS,ABC-02-033,77,SCALE,Scale (0-4),AAPASI,UPPER EXTREMITIES,3,3,3,,,16,WEEK 16,2007-02-13,112
ABC,QS,ABC-02-033,78,THCKNESS,Induration (0-4),AAPASI,UPPER EXTREMITIES,2,2,2,Y,,1,DAY 1,2006-10-25,1
ABC,QS,ABC-02-033,79,THCKNESS,Induration (0-4),AAPASI,UPPER EXTREMITIES,2,2,2,,,2,WEEK 2,2006-11-07,14
ABC,QS,ABC-02-033,80,THCKNESS,Induration (0-4),AAPASI,UPPER EXTREMITIES,2,2,2,,,4,WEEK 4,2006-11-21,28
ABC,QS,ABC-02-033,81,THCKNESS,Induration (0-4),AAPASI,UPPER EXTREMITIES,3,3,3,,,6,WEEK 6,2006-12-06,43
ABC,QS,ABC-02-033,82,THCKNESS,Induration (0-4),AAPASI,UPPER EXTREMITIES,1,1,1,,,8,WEEK 8,2006-12-19,56
ABC,QS,ABC-02-033,83,THCKNESS,Induration (0-4),AAPASI,UPPER EXTREMITIES,2,2,2,,,12,WEEK 12,2007-01-17,85
ABC,QS,ABC-02-033,84,THCKNESS,Induration (0-4),AAPASI,UPPER EXTREMITIES,2,2,2,,,16,WEEK 16,2007-02-13,112
ABC,QS,ABC-02-033,85,PRURPS,Pruritus Point Scale,PRURITUS ASSESSMENT,,3,3,3,Y,,1,DAY 1,2006-10-25,1
ABC,QS,ABC-02-033,86,PRURPS,Pruritus Point Scale,PRURITUS ASSESSMENT,,3,3,3,,,2,WEEK 2,2006-11-07,14
ABC,QS,ABC-02-033,87,PRURPS,Pruritus Point Scale,PRURITUS ASSESSMENT,,3,3,3,,,4,WEEK 4,2006-11-21,28
ABC,QS,ABC-02-033,88,PRURPS,Pruritus Point Scale,PRURITUS ASSESSMENT,,2,2,2,,,6,WEEK 6,2006-12-06,43
ABC,QS,ABC-02-033,89,PRURPS,Pruritus Point Scale,PRURITUS ASSESSMENT,,2,2,2,,,8,WEEK 8,2006-12-19,56
ABC,QS,ABC-02-033,90,PRURPS,Pruritus Point Scale,PRURITUS ASSESSMENT,,3,3,3,,,12,WEEK 12,2007-01-17,85
ABC,QS,ABC-02-033,91,PRURPS,Pruritus Point Scale,PRURITUS ASSESSMENT,,3,3,3,,,16,WEEK 16,2007-02-13,112
ABC,QS,ABC-02-033,92,PSGA,PSGA Score,PSGA,,2,2,2,Y,,1,DAY 1,2006-10-25,1
ABC,QS,ABC-02-033,93,PSGA,PSGA Score,PSGA,,2,2,2,,,2,WEEK 2,2006-11-07,14
ABC,QS,ABC-02-033,94,PSGA,PSGA Score,PSGA,,2,2,2,,,4,WEEK 4,2006-11-21,28
ABC,QS,ABC-02-033,95,PSGA,PSGA Score,PSGA,,2,2,2,,,6,WEEK 6,2006-12-06,43
ABC,QS,ABC-02-033,96,PSGA,PSGA Score,PSGA,,2,2,2,,,8,WEEK 8,2006-12-19,56
ABC,QS,ABC-02-033,97,PSGA,PSGA Score,PSGA,,2,2,2,,,12,WEEK 12,2007-01-17,85
ABC,QS,ABC-02-033,98,PSGA,PSGA Score,PSGA,,3,3,3,,,16,WEEK 16,2007-02-13,112
ABC,QS,ABC-02-033,99,BODYAC,Body Area Code,PSI,PLAQUE 1,30,30,30,Y,,1,DAY 1,2006-10-25,1
ABC,QS,ABC-02-033,100,BODYAC,Body Area Code,PSI,PLAQUE 1,30,30,30,,,2,WEEK 2,2006-11-07,14
ABC,QS,ABC-02-033,101,BODYAC,Body Area Code,PSI,PLAQUE 1,30,30,30,,,4,WEEK 4,2006-11-21,28
ABC,QS,ABC-02-033,102,BODYAC,Body Area Code,PSI,PLAQUE 1,30,30,30,,,6,WEEK 6,2006-12-06,43
ABC,QS,ABC-02-033,103,BODYAC,Body Area Code,PSI,PLAQUE 1,30,30,30,,,8,WEEK 8,2006-12-19,56
ABC,QS,ABC-02-033,104,BODYAC,Body Area Code,PSI,PLAQUE 1,30,30,30,,,12,WEEK 12,2007-01-17,85
ABC,QS,ABC-02-033,105,BODYAC,Body Area Code,PSI,PLAQUE 1,30,30,30,,,16,WEEK 16,2007-02-13,112
ABC,QS,ABC-02-033,106,CPSS,CPSS,PSI,PLAQUE 1,6,6,6,Y,Y,1,DAY 1,2006-10-25,1
ABC,QS,ABC-02-033,107,CPSS,CPSS,PSI,PLAQUE 1,6,6,6,,Y,2,WEEK 2,2006-11-07,14
ABC,QS,ABC-02-033,108,CPSS,CPSS,PSI,PLAQUE 1,6,6,6,,Y,4,WEEK 4,2006-11-21,28
ABC,QS,ABC-02-033,109,CPSS,CPSS,PSI,PLAQUE 1,7,7,7,,Y,6,WEEK 6,2006-12-06,43
ABC,QS,ABC-02-033,110,CPSS,CPSS,PSI,PLAQUE 1,5,5,5,,Y,8,WEEK 8,2006-12-19,56
ABC,QS,ABC-02-033,111,CPSS,CPSS,PSI,PLAQUE 1,5,5,5,,Y,12,WEEK 12,2007-01-17,85
ABC,QS,ABC-02-033,112,CPSS,CPSS,PSI,PLAQUE 1,8,8,8,,Y,16,WEEK 16,2007-02-13,112
ABC,QS,ABC-02-033,113,ERYTHSS,Erythema Severity Score,PSI,PLAQUE 1,2,2,2,Y,,1,DAY 1,2006-10-25,1
ABC,QS,ABC-02-033,114,ERYTHSS,Erythema Severity Score,PSI,PLAQUE 1,2,2,2,,,2,WEEK 2,2006-11-07,14
ABC,QS,ABC-02-033,115,ERYTHSS,Erythema Severity Score,PSI,PLAQUE 1,2,2,2,,,4,WEEK 4,2006-11-21,28
ABC,QS,ABC-02-033,116,ERYTHSS,Erythema Severity Score,PSI,PLAQUE 1,2,2,2,,,6,WEEK 6,2006-12-06,43
ABC,QS,ABC-02-033,117,ERYTHSS,Erythema Severity Score,PSI,PLAQUE 1,1,1,1,,,8,WEEK 8,2006-12-19,56
ABC,QS,ABC-02-033,118,ERYTHSS,Erythema Severity Score,PSI,PLAQUE 1,2,2,2,,,12,WEEK 12,2007-01-17,85
ABC,QS,ABC-02-033,119,ERYTHSS,Erythema Severity Score,PSI,PLAQUE 1,3,3,3,,,16,WEEK 16,2007-02-13,112
ABC,QS,ABC-02-033,120,INDURSS,Induration Severity Score,PSI,PLAQUE 1,2,2,2,Y,,1,DAY 1,2006-10-25,1
ABC,QS,ABC-02-033,121,INDURSS,Induration Severity Score,PSI,PLAQUE 1,2,2,2,,,2,WEEK 2,2006-11-07,14
ABC,QS,ABC-02-033,122,INDURSS,Induration Severity Score,PSI,PLAQUE 1,2,2,2,,,4,WEEK 4,2006-11-21,28
ABC,QS,ABC-02-033,123,INDURSS,Induration Severity Score,PSI,PLAQUE 1,2,2,2,,,6,WEEK 6,2006-12-06,43
ABC,QS,ABC-02-033,124,INDURSS,Induration Severity Score,PSI,PLAQUE 1,2,2,2,,,8,WEEK 8,2006-12-19,56
ABC,QS,ABC-02-033,125,INDURSS,Induration Severity Score,PSI,PLAQUE 1,2,2,2,,,12,WEEK 12,2007-01-17,85
ABC,QS,ABC-02-033,126,INDURSS,Induration Severity Score,PSI,PLAQUE 1,2,2,2,,,16,WEEK 16,2007-02-13,112
ABC,QS,ABC-02-033,127,SCALSS,Scaling Severity Score,PSI,PLAQUE 1,2,2,2,Y,,1,DAY 1,2006-10-25,1
ABC,QS,ABC-02-033,128,SCALSS,Scaling Severity Score,PSI,PLAQUE 1,2,2,2,,,2,WEEK 2,2006-11-07,14
ABC,QS,ABC-02-033,129,SCALSS,Scaling Severity Score,PSI,PLAQUE 1,2,2,2,,,4,WEEK 4,2006-11-21,28
ABC,QS,ABC-02-033,130,SCALSS,Scaling Severity Score,PSI,PLAQUE 1,3,3,3,,,6,WEEK 6,2006-12-06,43
ABC,QS,ABC-02-033,131,SCALSS,Scaling Severity Score,PSI,PLAQUE 1,2,2,2,,,8,WEEK 8,2006-12-19,56
ABC,QS,ABC-02-033,132,SCALSS,Scaling Severity Score,PSI,PLAQUE 1,1,1,1,,,12,WEEK 12,2007-01-17,85
ABC,QS,ABC-02-033,133,SCALSS,Scaling Severity Score,PSI,PLAQUE 1,3,3,3,,,16,WEEK 16,2007-02-13,112
ABC,QS,ABC-02-033,134,BODYAC,Body Area Code,PSI,PLAQUE 2,12,12,12,Y,,1,DAY 1,2006-10-25,1
ABC,QS,ABC-02-033,135,BODYAC,Body Area Code,PSI,PLAQUE 2,12,12,12,,,2,WEEK 2,2006-11-07,14
ABC,QS,ABC-02-033,136,BODYAC,Body Area Code,PSI,PLAQUE 2,12,12,12,,,4,WEEK 4,2006-11-21,28
ABC,QS,ABC-02-033,137,BODYAC,Body Area Code,PSI,PLAQUE 2,12,12,12,,,6,WEEK 6,2006-12-06,43
ABC,QS,ABC-02-033,138,BODYAC,Body Area Code,PSI,PLAQUE 2,12,12,12,,,8,WEEK 8,2006-12-19,56
ABC,QS,ABC-02-033,139,BODYAC,Body Area Code,PSI,PLAQUE 2,12,12,12,,,12,WEEK 12,2007-01-17,85
ABC,QS,ABC-02-033,140,BODYAC,Body Area Code,PSI,PLAQUE 2,12,12,12,,,16,WEEK 16,2007-02-13,112
ABC,QS,ABC-02-033,141,CPSS,CPSS,PSI,PLAQUE 2,7,7,7,Y,Y,1,DAY 1,2006-10-25,1
ABC,QS,ABC-02-033,142,CPSS,CPSS,PSI,PLAQUE 2,7,7,7,,Y,2,WEEK 2,2006-11-07,14
ABC,QS,ABC-02-033,143,CPSS,CPSS,PSI,PLAQUE 2,6,6,6,,Y,4,WEEK 4,2006-11-21,28
ABC,QS,ABC-02-033,144,CPSS,CPSS,PSI,PLAQUE 2,8,8,8,,Y,6,WEEK 6,2006-12-06,43
ABC,QS,ABC-02-033,145,CPSS,CPSS,PSI,PLAQUE 2,5,5,5,,Y,8,WEEK 8,2006-12-19,56
ABC,QS,ABC-02-033,146,CPSS,CPSS,PSI,PLAQUE 2,5,5,5,,Y,12,WEEK 12,2007-01-17,85
ABC,QS,ABC-02-033,147,CPSS,CPSS,PSI,PLAQUE 2,7,7,7,,Y,16,WEEK 16,2007-02-13,112
ABC,QS,ABC-02-033,148,ERYTHSS,Erythema Severity Score,PSI,PLAQUE 2,2,2,2,Y,,1,DAY 1,2006-10-25,1
ABC,QS,ABC-02-033,149,ERYTHSS,Erythema Severity Score,PSI,PLAQUE 2,2,2,2,,,2,WEEK 2,2006-11-07,14
ABC,QS,ABC-02-033,150,ERYTHSS,Erythema Severity Score,PSI,PLAQUE 2,2,2,2,,,4,WEEK 4,2006-11-21,28
ABC,QS,ABC-02-033,151,ERYTHSS,Erythema Severity Score,PSI,PLAQUE 2,3,3,3,,,6,WEEK 6,2006-12-06,43
ABC,QS,ABC-02-033,152,ERYTHSS,Erythema Severity Score,PSI,PLAQUE 2,2,2,2,,,8,WEEK 8,2006-12-19,56
ABC,QS,ABC-02-033,153,ERYTHSS,Erythema Severity Score,PSI,PLAQUE 2,2,2,2,,,12,WEEK 12,2007-01-17,85
ABC,QS,ABC-02-033,154,ERYTHSS,Erythema Severity Score,PSI,PLAQUE 2,3,3,3,,,16,WEEK 16,2007-02-13,112
ABC,QS,ABC-02-033,155,INDURSS,Induration Severity Score,PSI,PLAQUE 2,2,2,2,Y,,1,DAY 1,2006-10-25,1
ABC,QS,ABC-02-033,156,INDURSS,Induration Severity Score,PSI,PLAQUE 2,2,2,2,,,2,WEEK 2,2006-11-07,14
ABC,QS,ABC-02-033,157,INDURSS,Induration Severity Score,PSI,PLAQUE 2,2,2,2,,,4,WEEK 4,2006-11-21,28
ABC,QS,ABC-02-033,158,INDURSS,Induration Severity Score,PSI,PLAQUE 2,2,2,2,,,6,WEEK 6,2006-12-06,43
ABC,QS,ABC-02-033,159,INDURSS,Induration Severity Score,PSI,PLAQUE 2,1,1,1,,,8,WEEK 8,2006-12-19,56
ABC,QS,ABC-02-033,160,INDURSS,Induration Severity Score,PSI,PLAQUE 2,1,1,1,,,12,WEEK 12,2007-01-17,85
ABC,QS,ABC-02-033,161,INDURSS,Induration Severity Score,PSI,PLAQUE 2,1,1,1,,,16,WEEK 16,2007-02-13,112
ABC,QS,ABC-02-033,162,SCALSS,Scaling Severity Score,PSI,PLAQUE 2,3,3,3,Y,,1,DAY 1,2006-10-25,1
ABC,QS,ABC-02-033,163,SCALSS,Scaling Severity Score,PSI,PLAQUE 2,3,3,3,,,2,WEEK 2,2006-11-07,14
ABC,QS,ABC-02-033,164,SCALSS,Scaling Severity Score,PSI,PLAQUE 2,2,2,2,,,4,WEEK 4,2006-11-21,28
ABC,QS,ABC-02-033,165,SCALSS,Scaling Severity Score,PSI,PLAQUE 2,3,3,3,,,6,WEEK 6,2006-12-06,43
ABC,QS,ABC-02-033,166,SCALSS,Scaling Severity Score,PSI,PLAQUE 2,2,2,2,,,8,WEEK 8,2006-12-19,56
ABC,QS,ABC-02-033,167,SCALSS,Scaling Severity Score,PSI,PLAQUE 2,2,2,2,,,12,WEEK 12,2007-01-17,85
ABC,QS,ABC-02-033,168,SCALSS,Scaling Severity Score,PSI,PLAQUE 2,3,3,3,,,16,WEEK 16,2007-02-13,112
ABC,QS,ABC-02-034,1,AREASCOR,Area Score (0-6),AAPASI,LOWER EXTREMITIES,1,1,1,Y,,1,DAY 1,2006-10-26,1
ABC,QS,ABC-02-034,2,AREASCOR,Area Score (0-6),AAPASI,LOWER EXTREMITIES,1,1,1,,,2,WEEK 2,2006-11-08,14
ABC,QS,ABC-02-034,3,AREASCOR,Area Score (0-6),AAPASI,LOWER EXTREMITIES,1,1,1,,,4,WEEK 4,2006-11-21,27
ABC,QS,ABC-02-034,4,AREASCOR,Area Score (0-6),AAPASI,LOWER EXTREMITIES,1,1,1,,,6,WEEK 6,2006-12-06,42
ABC,QS,ABC-02-034,5,AREASCOR,Area Score (0-6),AAPASI,LOWER EXTREMITIES,3,3,3,,,8,WEEK 8,2006-12-19,55
ABC,QS,ABC-02-034,6,AREASCOR,Area Score (0-6),AAPASI,LOWER EXTREMITIES,2,2,2,,,12,WEEK 12,2007-01-18,85
ABC,QS,ABC-02-034,7,AREASCOR,Area Score (0-6),AAPASI,LOWER EXTREMITIES,2,2,2,,,16,WEEK 16,2007-02-15,113
ABC,QS,ABC-02-034,8,ERYTHEMA,Erythema (0-4),AAPASI,LOWER EXTREMITIES,2,2,2,Y,,1,DAY 1,2006-10-26,1
ABC,QS,ABC-02-034,9,ERYTHEMA,Erythema (0-4),AAPASI,LOWER EXTREMITIES,2,2,2,,,2,WEEK 2,2006-11-08,14
ABC,QS,ABC-02-034,10,ERYTHEMA,Erythema (0-4),AAPASI,LOWER EXTREMITIES,3,3,3,,,4,WEEK 4,2006-11-21,27
ABC,QS,ABC-02-034,11,ERYTHEMA,Erythema (0-4),AAPASI,LOWER EXTREMITIES,2,2,2,,,6,WEEK 6,2006-12-06,42
ABC,QS,ABC-02-034,12,ERYTHEMA,Erythema (0-4),AAPASI,LOWER EXTREMITIES,2,2,2,,,8,WEEK 8,2006-12-19,55
ABC,QS,ABC-02-034,13,ERYTHEMA,Erythema (0-4),AAPASI,LOWER EXTREMITIES,2,2,2,,,12,WEEK 12,2007-01-18,85
ABC,QS,ABC-02-034,14,ERYTHEMA,Erythema (0-4),AAPASI,LOWER EXTREMITIES,2,2,2,,,16,WEEK 16,2007-02-15,113
ABC,QS,ABC-02-034,15,SCALE,Scale (0-4),AAPASI,LOWER EXTREMITIES,2,2,2,Y,,1,DAY 1,2006-10-26,1
ABC,QS,ABC-02-034,16,SCALE,Scale (0-4),AAPASI,LOWER EXTREMITIES,2,2,2,,,2,WEEK 2,2006-11-08,14
ABC,QS,ABC-02-034,17,SCALE,Scale (0-4),AAPASI,LOWER EXTREMITIES,2,2,2,,,4,WEEK 4,2006-11-21,27
ABC,QS,ABC-02-034,18,SCALE,Scale (0-4),AAPASI,LOWER EXTREMITIES,2,2,2,,,6,WEEK 6,2006-12-06,42
ABC,QS,ABC-02-034,19,SCALE,Scale (0-4),AAPASI,LOWER EXTREMITIES,2,2,2,,,8,WEEK 8,2006-12-19,55
ABC,QS,ABC-02-034,20,SCALE,Scale (0-4),AAPASI,LOWER EXTREMITIES,2,2,2,,,12,WEEK 12,2007-01-18,85
ABC,QS,ABC-02-034,21,SCALE,Scale (0-4),AAPASI,LOWER EXTREMITIES,2,2,2,,,16,WEEK 16,2007-02-15,113
ABC,QS,ABC-02-034,22,THCKNESS,Induration (0-4),AAPASI,LOWER EXTREMITIES,2,2,2,Y,,1,DAY 1,2006-10-26,1
ABC,QS,ABC-02-034,23,THCKNESS,Induration (0-4),AAPASI,LOWER EXTREMITIES,1,1,1,,,2,WEEK 2,2006-11-08,14
ABC,QS,ABC-02-034,24,THCKNESS,Induration (0-4),AAPASI,LOWER EXTREMITIES,2,2,2,,,4,WEEK 4,2006-11-21,27
ABC,QS,ABC-02-034,25,THCKNESS,Induration (0-4),AAPASI,LOWER EXTREMITIES,1,1,1,,,6,WEEK 6,2006-12-06,42
ABC,QS,ABC-02-034,26,THCKNESS,Induration (0-4),AAPASI,LOWER EXTREMITIES,1,1,1,,,8,WEEK 8,2006-12-19,55
ABC,QS,ABC-02-034,27,THCKNESS,Induration (0-4),AAPASI,LOWER EXTREMITIES,1,1,1,,,12,WEEK 12,2007-01-18,85
ABC,QS,ABC-02-034,28,THCKNESS,Induration (0-4),AAPASI,LOWER EXTREMITIES,2,2,2,,,16,WEEK 16,2007-02-15,113
ABC,QS,ABC-02-034,29,AREASCOR,Area Score (0-6),AAPASI,TRUNK,1,1,1,Y,,1,DAY 1,2006-10-26,1
ABC,QS,ABC-02-034,30,AREASCOR,Area Score (0-6),AAPASI,TRUNK,1,1,1,,,2,WEEK 2,2006-11-08,14
ABC,QS,ABC-02-034,31,AREASCOR,Area Score (0-6),AAPASI,TRUNK,1,1,1,,,4,WEEK 4,2006-11-21,27
ABC,QS,ABC-02-034,32,AREASCOR,Area Score (0-6),AAPASI,TRUNK,1,1,1,,,6,WEEK 6,2006-12-06,42
ABC,QS,ABC-02-034,33,AREASCOR,Area Score (0-6),AAPASI,TRUNK,2,2,2,,,8,WEEK 8,2006-12-19,55
ABC,QS,ABC-02-034,34,AREASCOR,Area Score (0-6),AAPASI,TRUNK,2,2,2,,,12,WEEK 12,2007-01-18,85
ABC,QS,ABC-02-034,35,AREASCOR,Area Score (0-6),AAPASI,TRUNK,1,1,1,,,16,WEEK 16,2007-02-15,113
ABC,QS,ABC-02-034,36,ERYTHEMA,Erythema (0-4),AAPASI,TRUNK,2,2,2,Y,,1,DAY 1,2006-10-26,1
ABC,QS,ABC-02-034,37,ERYTHEMA,Erythema (0-4),AAPASI,TRUNK,1,1,1,,,2,WEEK 2,2006-11-08,14
ABC,QS,ABC-02-034,38,ERYTHEMA,Erythema (0-4),AAPASI,TRUNK,2,2,2,,,4,WEEK 4,2006-11-21,27
ABC,QS,ABC-02-034,39,ERYTHEMA,Erythema (0-4),AAPASI,TRUNK,2,2,2,,,6,WEEK 6,2006-12-06,42
ABC,QS,ABC-02-034,40,ERYTHEMA,Erythema (0-4),AAPASI,TRUNK,2,2,2,,,8,WEEK 8,2006-12-19,55
ABC,QS,ABC-02-034,41,ERYTHEMA,Erythema (0-4),AAPASI,TRUNK,2,2,2,,,12,WEEK 12,2007-01-18,85
ABC,QS,ABC-02-034,42,ERYTHEMA,Erythema (0-4),AAPASI,TRUNK,2,2,2,,,16,WEEK 16,2007-02-15,113
ABC,QS,ABC-02-034,43,SCALE,Scale (0-4),AAPASI,TRUNK,2,2,2,Y,,1,DAY 1,2006-10-26,1
ABC,QS,ABC-02-034,44,SCALE,Scale (0-4),AAPASI,TRUNK,1,1,1,,,2,WEEK 2,2006-11-08,14
ABC,QS,ABC-02-034,45,SCALE,Scale (0-4),AAPASI,TRUNK,2,2,2,,,4,WEEK 4,2006-11-21,27
ABC,QS,ABC-02-034,46,SCALE,Scale (0-4),AAPASI,TRUNK,3,3,3,,,6,WEEK 6,2006-12-06,42
ABC,QS,ABC-02-034,47,SCALE,Scale (0-4),AAPASI,TRUNK,2,2,2,,,8,WEEK 8,2006-12-19,55
ABC,QS,ABC-02-034,48,SCALE,Scale (0-4),AAPASI,TRUNK,2,2,2,,,12,WEEK 12,2007-01-18,85
ABC,QS,ABC-02-034,49,SCALE,Scale (0-4),AAPASI,TRUNK,2,2,2,,,16,WEEK 16,2007-02-15,113
ABC,QS,ABC-02-034,50,THCKNESS,Induration (0-4),AAPASI,TRUNK,1,1,1,Y,,1,DAY 1,2006-10-26,1
ABC,QS,ABC-02-034,51,THCKNESS,Induration (0-4),AAPASI,TRUNK,1,1,1,,,2,WEEK 2,2006-11-08,14
ABC,QS,ABC-02-034,52,THCKNESS,Induration (0-4),AAPASI,TRUNK,2,2,2,,,4,WEEK 4,2006-11-21,27
ABC,QS,ABC-02-034,53,THCKNESS,Induration (0-4),AAPASI,TRUNK,2,2,2,,,6,WEEK 6,2006-12-06,42
ABC,QS,ABC-02-034,54,THCKNESS,Induration (0-4),AAPASI,TRUNK,2,2,2,,,8,WEEK 8,2006-12-19,55
ABC,QS,ABC-02-034,55,THCKNESS,Induration (0-4),AAPASI,TRUNK,1,1,1,,,12,WEEK 12,2007-01-18,85
ABC,QS,ABC-02-034,56,THCKNESS,Induration (0-4),AAPASI,TRUNK,2,2,2,,,16,WEEK 16,2007-02-15,113
ABC,QS,ABC-02-034,57,AREASCOR,Area Score (0-6),AAPASI,UPPER EXTREMITIES,1,1,1,Y,,1,DAY 1,2006-10-26,1
ABC,QS,ABC-02-034,58,AREASCOR,Area Score (0-6),AAPASI,UPPER EXTREMITIES,1,1,1,,,2,WEEK 2,2006-11-08,14
ABC,QS,ABC-02-034,59,AREASCOR,Area Score (0-6),AAPASI,UPPER EXTREMITIES,1,1,1,,,4,WEEK 4,2006-11-21,27
ABC,QS,ABC-02-034,60,AREASCOR,Area Score (0-6),AAPASI,UPPER EXTREMITIES,2,2,2,,,6,WEEK 6,2006-12-06,42
ABC,QS,ABC-02-034,61,AREASCOR,Area Score (0-6),AAPASI,UPPER EXTREMITIES,2,2,2,,,8,WEEK 8,2006-12-19,55
ABC,QS,ABC-02-034,62,AREASCOR,Area Score (0-6),AAPASI,UPPER EXTREMITIES,2,2,2,,,12,WEEK 12,2007-01-18,85
ABC,QS,ABC-02-034,63,AREASCOR,Area Score (0-6),AAPASI,UPPER EXTREMITIES,1,1,1,,,16,WEEK 16,2007-02-15,113
ABC,QS,ABC-02-034,64,ERYTHEMA,Erythema (0-4),AAPASI,UPPER EXTREMITIES,2,2,2,Y,,1,DAY 1,2006-10-26,1
ABC,QS,ABC-02-034,65,ERYTHEMA,Erythema (0-4),AAPASI,UPPER EXTREMITIES,1,1,1,,,2,WEEK 2,2006-11-08,14
ABC,QS,ABC-02-034,66,ERYTHEMA,Erythema (0-4),AAPASI,UPPER EXTREMITIES,3,3,3,,,4,WEEK 4,2006-11-21,27
ABC,QS,ABC-02-034,67,ERYTHEMA,Erythema (0-4),AAPASI,UPPER EXTREMITIES,3,3,3,,,6,WEEK 6,2006-12-06,42
ABC,QS,ABC-02-034,68,ERYTHEMA,Erythema (0-4),AAPASI,UPPER EXTREMITIES,2,2,2,,,8,WEEK 8,2006-12-19,55
ABC,QS,ABC-02-034,69,ERYTHEMA,Erythema (0-4),AAPASI,UPPER EXTREMITIES,2,2,2,,,12,WEEK 12,2007-01-18,85
ABC,QS,ABC-02-034,70,ERYTHEMA,Erythema (0-4),AAPASI,UPPER EXTREMITIES,2,2,2,,,16,WEEK 16,2007-02-15,113
ABC,QS,ABC-02-034,71,SCALE,Scale (0-4),AAPASI,UPPER EXTREMITIES,2,2,2,Y,,1,DAY 1,2006-10-26,1
ABC,QS,ABC-02-034,72,SCALE,Scale (0-4),AAPASI,UPPER EXTREMITIES,2,2,2,,,2,WEEK 2,2006-11-08,14
ABC,QS,ABC-02-034,73,SCALE,Scale (0-4),AAPASI,UPPER EXTREMITIES,2,2,2,,,4,WEEK 4,2006-11-21,27
ABC,QS,ABC-02-034,74,SCALE,Scale (0-4),AAPASI,UPPER EXTREMITIES,3,3,3,,,6,WEEK 6,2006-12-06,42
ABC,QS,ABC-02-034,75,SCALE,Scale (0-4),AAPASI,UPPER EXTREMITIES,2,2,2,,,8,WEEK 8,2006-12-19,55
ABC,QS,ABC-02-034,76,SCALE,Scale (0-4),AAPASI,UPPER EXTREMITIES,2,2,2,,,12,WEEK 12,2007-01-18,85
ABC,QS,ABC-02-034,77,SCALE,Scale (0-4),AAPASI,UPPER EXTREMITIES,2,2,2,,,16,WEEK 16,2007-02-15,113
ABC,QS,ABC-02-034,78,THCKNESS,Induration (0-4),AAPASI,UPPER EXTREMITIES,2,2,2,Y,,1,DAY 1,2006-10-26,1
ABC,QS,ABC-02-034,79,THCKNESS,Induration (0-4),AAPASI,UPPER EXTREMITIES,2,2,2,,,2,WEEK 2,2006-11-08,14
ABC,QS,ABC-02-034,80,THCKNESS,Induration (0-4),AAPASI,UPPER EXTREMITIES,2,2,2,,,4,WEEK 4,2006-11-21,27
ABC,QS,ABC-02-034,81,THCKNESS,Induration (0-4),AAPASI,UPPER EXTREMITIES,3,3,3,,,6,WEEK 6,2006-12-06,42
ABC,QS,ABC-02-034,82,THCKNESS,Induration (0-4),AAPASI,UPPER EXTREMITIES,2,2,2,,,8,WEEK 8,2006-12-19,55
ABC,QS,ABC-02-034,83,THCKNESS,Induration (0-4),AAPASI,UPPER EXTREMITIES,1,1,1,,,12,WEEK 12,2007-01-18,85
ABC,QS,ABC-02-034,84,THCKNESS,Induration (0-4),AAPASI,UPPER EXTREMITIES,1,1,1,,,16,WEEK 16,2007-02-15,113
ABC,QS,ABC-02-034,85,PRURPS,Pruritus Point Scale,PRURITUS ASSESSMENT,,1,1,1,Y,,1,DAY 1,2006-10-26,1
ABC,QS,ABC-02-034,86,PRURPS,Pruritus Point Scale,PRURITUS ASSESSMENT,,1,1,1,,,2,WEEK 2,2006-11-08,14
ABC,QS,ABC-02-034,87,PRURPS,Pruritus Point Scale,PRURITUS ASSESSMENT,,1,1,1,,,4,WEEK 4,2006-11-21,27
ABC,QS,ABC-02-034,88,PRURPS,Pruritus Point Scale,PRURITUS ASSESSMENT,,1,1,1,,,6,WEEK 6,2006-12-06,42
ABC,QS,ABC-02-034,89,PRURPS,Pruritus Point Scale,PRURITUS ASSESSMENT,,1,1,1,,,8,WEEK 8,2006-12-19,55
ABC,QS,ABC-02-034,90,PRURPS,Pruritus Point Scale,PRURITUS ASSESSMENT,,1,1,1,,,12,WEEK 12,2007-01-18,85
ABC,QS,ABC-02-034,91,PRURPS,Pruritus Point Scale,PRURITUS ASSESSMENT,,0,0,0,,,16,WEEK 16,2007-02-15,113
ABC,QS,ABC-02-034,92,PSGA,PSGA Score,PSGA,,2,2,2,Y,,1,DAY 1,2006-10-26,1
ABC,QS,ABC-02-034,93,PSGA,PSGA Score,PSGA,,2,2,2,,,2,WEEK 2,2006-11-08,14
ABC,QS,ABC-02-034,94,PSGA,PSGA Score,PSGA,,2,2,2,,,4,WEEK 4,2006-11-21,27
ABC,QS,ABC-02-034,95,PSGA,PSGA Score,PSGA,,3,3,3,,,6,WEEK 6,2006-12-06,42
ABC,QS,ABC-02-034,96,PSGA,PSGA Score,PSGA,,2,2,2,,,8,WEEK 8,2006-12-19,55
ABC,QS,ABC-02-034,97,PSGA,PSGA Score,PSGA,,2,2,2,,,12,WEEK 12,2007-01-18,85
ABC,QS,ABC-02-034,98,PSGA,PSGA Score,PSGA,,2,2,2,,,16,WEEK 16,2007-02-15,113
ABC,QS,ABC-02-034,99,BODYAC,Body Area Code,PSI,PLAQUE 1,7,7,7,Y,,1,DAY 1,2006-10-26,1
ABC,QS,ABC-02-034,100,BODYAC,Body Area Code,PSI,PLAQUE 1,7,7,7,,,2,WEEK 2,2006-11-08,14
ABC,QS,ABC-02-034,101,BODYAC,Body Area Code,PSI,PLAQUE 1,7,7,7,,,4,WEEK 4,2006-11-21,27
ABC,QS,ABC-02-034,102,BODYAC,Body Area Code,PSI,PLAQUE 1,7,7,7,,,6,WEEK 6,2006-12-06,42
ABC,QS,ABC-02-034,103,BODYAC,Body Area Code,PSI,PLAQUE 1,7,7,7,,,8,WEEK 8,2006-12-19,55
ABC,QS,ABC-02-034,104,BODYAC,Body Area Code,PSI,PLAQUE 1,7,7,7,,,12,WEEK 12,2007-01-18,85
ABC,QS,ABC-02-034,105,BODYAC,Body Area Code,PSI,PLAQUE 1,7,7,7,,,16,WEEK 16,2007-02-15,113
ABC,QS,ABC-02-034,106,CPSS,CPSS,PSI,PLAQUE 1,6,6,6,Y,Y,1,DAY 1,2006-10-26,1
ABC,QS,ABC-02-034,107,CPSS,CPSS,PSI,PLAQUE 1,4,4,4,,Y,2,WEEK 2,2006-11-08,14
ABC,QS,ABC-02-034,108,CPSS,CPSS,PSI,PLAQUE 1,4,4,4,,Y,4,WEEK 4,2006-11-21,27
ABC,QS,ABC-02-034,109,CPSS,CPSS,PSI,PLAQUE 1,6,6,6,,Y,6,WEEK 6,2006-12-06,42
ABC,QS,ABC-02-034,110,CPSS,CPSS,PSI,PLAQUE 1,6,6,6,,Y,8,WEEK 8,2006-12-19,55
ABC,QS,ABC-02-034,111,CPSS,CPSS,PSI,PLAQUE 1,5,5,5,,Y,12,WEEK 12,2007-01-18,85
ABC,QS,ABC-02-034,112,CPSS,CPSS,PSI,PLAQUE 1,5,5,5,,Y,16,WEEK 16,2007-02-15,113
ABC,QS,ABC-02-034,113,ERYTHSS,Erythema Severity Score,PSI,PLAQUE 1,2,2,2,Y,,1,DAY 1,2006-10-26,1
ABC,QS,ABC-02-034,114,ERYTHSS,Erythema Severity Score,PSI,PLAQUE 1,2,2,2,,,2,WEEK 2,2006-11-08,14
ABC,QS,ABC-02-034,115,ERYTHSS,Erythema Severity Score,PSI,PLAQUE 1,2,2,2,,,4,WEEK 4,2006-11-21,27
ABC,QS,ABC-02-034,116,ERYTHSS,Erythema Severity Score,PSI,PLAQUE 1,2,2,2,,,6,WEEK 6,2006-12-06,42
ABC,QS,ABC-02-034,117,ERYTHSS,Erythema Severity Score,PSI,PLAQUE 1,2,2,2,,,8,WEEK 8,2006-12-19,55
ABC,QS,ABC-02-034,118,ERYTHSS,Erythema Severity Score,PSI,PLAQUE 1,2,2,2,,,12,WEEK 12,2007-01-18,85
ABC,QS,ABC-02-034,119,ERYTHSS,Erythema Severity Score,PSI,PLAQUE 1,2,2,2,,,16,WEEK 16,2007-02-15,113
ABC,QS,ABC-02-034,120,INDURSS,Induration Severity Score,PSI,PLAQUE 1,2,2,2,Y,,1,DAY 1,2006-10-26,1
ABC,QS,ABC-02-034,121,INDURSS,Induration Severity Score,PSI,PLAQUE 1,1,1,1,,,2,WEEK 2,2006-11-08,14
ABC,QS,ABC-02-034,122,INDURSS,Induration Severity Score,PSI,PLAQUE 1,1,1,1,,,4,WEEK 4,2006-11-21,27
ABC,QS,ABC-02-034,123,INDURSS,Induration Severity Score,PSI,PLAQUE 1,2,2,2,,,6,WEEK 6,2006-12-06,42
ABC,QS,ABC-02-034,124,INDURSS,Induration Severity Score,PSI,PLAQUE 1,2,2,2,,,8,WEEK 8,2006-12-19,55
ABC,QS,ABC-02-034,125,INDURSS,Induration Severity Score,PSI,PLAQUE 1,1,1,1,,,12,WEEK 12,2007-01-18,85
ABC,QS,ABC-02-034,126,INDURSS,Induration Severity Score,PSI,PLAQUE 1,1,1,1,,,16,WEEK 16,2007-02-15,113
ABC,QS,ABC-02-034,127,SCALSS,Scaling Severity Score,PSI,PLAQUE 1,2,2,2,Y,,1,DAY 1,2006-10-26,1
ABC,QS,ABC-02-034,128,SCALSS,Scaling Severity Score,PSI,PLAQUE 1,1,1,1,,,2,WEEK 2,2006-11-08,14
ABC,QS,ABC-02-034,129,SCALSS,Scaling Severity Score,PSI,PLAQUE 1,1,1,1,,,4,WEEK 4,2006-11-21,27
ABC,QS,ABC-02-034,130,SCALSS,Scaling Severity Score,PSI,PLAQUE 1,2,2,2,,,6,WEEK 6,2006-12-06,42
ABC,QS,ABC-02-034,131,SCALSS,Scaling Severity Score,PSI,PLAQUE 1,2,2,2,,,8,WEEK 8,2006-12-19,55
ABC,QS,ABC-02-034,132,SCALSS,Scaling Severity Score,PSI,PLAQUE 1,2,2,2,,,12,WEEK 12,2007-01-18,85
ABC,QS,ABC-02-034,133,SCALSS,Scaling Severity Score,PSI,PLAQUE 1,2,2,2,,,16,WEEK 16,2007-02-15,113
ABC,QS,ABC-02-034,134,BODYAC,Body Area Code,PSI,PLAQUE 2,10,10,10,Y,,1,DAY 1,2006-10-26,1
ABC,QS,ABC-02-034,135,BODYAC,Body Area Code,PSI,PLAQUE 2,10,10,10,,,2,WEEK 2,2006-11-08,14
ABC,QS,ABC-02-034,136,BODYAC,Body Area Code,PSI,PLAQUE 2,10,10,10,,,4,WEEK 4,2006-11-21,27
ABC,QS,ABC-02-034,137,BODYAC,Body Area Code,PSI,PLAQUE 2,10,10,10,,,6,WEEK 6,2006-12-06,42
ABC,QS,ABC-02-034,138,BODYAC,Body Area Code,PSI,PLAQUE 2,10,10,10,,,8,WEEK 8,2006-12-19,55
ABC,QS,ABC-02-034,139,BODYAC,Body Area Code,PSI,PLAQUE 2,10,10,10,,,12,WEEK 12,2007-01-18,85
ABC,QS,ABC-02-034,140,BODYAC,Body Area Code,PSI,PLAQUE 2,10,10,10,,,16,WEEK 16,2007-02-15,113
ABC,QS,ABC-02-034,141,CPSS,CPSS,PSI,PLAQUE 2,6,6,6,Y,Y,1,DAY 1,2006-10-26,1
ABC,QS,ABC-02-034,142,CPSS,CPSS,PSI,PLAQUE 2,4,4,4,,Y,2,WEEK 2,2006-11-08,14
ABC,QS,ABC-02-034,143,CPSS,CPSS,PSI,PLAQUE 2,4,4,4,,Y,4,WEEK 4,2006-11-21,27
ABC,QS,ABC-02-034,144,CPSS,CPSS,PSI,PLAQUE 2,6,6,6,,Y,6,WEEK 6,2006-12-06,42
ABC,QS,ABC-02-034,145,CPSS,CPSS,PSI,PLAQUE 2,4,4,4,,Y,8,WEEK 8,2006-12-19,55
ABC,QS,ABC-02-034,146,CPSS,CPSS,PSI,PLAQUE 2,5,5,5,,Y,12,WEEK 12,2007-01-18,85
ABC,QS,ABC-02-034,147,CPSS,CPSS,PSI,PLAQUE 2,6,6,6,,Y,16,WEEK 16,2007-02-15,113
ABC,QS,ABC-02-034,148,ERYTHSS,Erythema Severity Score,PSI,PLAQUE 2,2,2,2,Y,,1,DAY 1,2006-10-26,1
ABC,QS,ABC-02-034,149,ERYTHSS,Erythema Severity Score,PSI,PLAQUE 2,2,2,2,,,2,WEEK 2,2006-11-08,14
ABC,QS,ABC-02-034,150,ERYTHSS,Erythema Severity Score,PSI,PLAQUE 2,2,2,2,,,4,WEEK 4,2006-11-21,27
ABC,QS,ABC-02-034,151,ERYTHSS,Erythema Severity Score,PSI,PLAQUE 2,2,2,2,,,6,WEEK 6,2006-12-06,42
ABC,QS,ABC-02-034,152,ERYTHSS,Erythema Severity Score,PSI,PLAQUE 2,2,2,2,,,8,WEEK 8,2006-12-19,55
ABC,QS,ABC-02-034,153,ERYTHSS,Erythema Severity Score,PSI,PLAQUE 2,2,2,2,,,12,WEEK 12,2007-01-18,85
ABC,QS,ABC-02-034,154,ERYTHSS,Erythema Severity Score,PSI,PLAQUE 2,2,2,2,,,16,WEEK 16,2007-02-15,113
ABC,QS,ABC-02-034,155,INDURSS,Induration Severity Score,PSI,PLAQUE 2,2,2,2,Y,,1,DAY 1,2006-10-26,1
ABC,QS,ABC-02-034,156,INDURSS,Induration Severity Score,PSI,PLAQUE 2,1,1,1,,,2,WEEK 2,2006-11-08,14
ABC,QS,ABC-02-034,157,INDURSS,Induration Severity Score,PSI,PLAQUE 2,1,1,1,,,4,WEEK 4,2006-11-21,27
ABC,QS,ABC-02-034,158,INDURSS,Induration Severity Score,PSI,PLAQUE 2,2,2,2,,,6,WEEK 6,2006-12-06,42
ABC,QS,ABC-02-034,159,INDURSS,Induration Severity Score,PSI,PLAQUE 2,1,1,1,,,8,WEEK 8,2006-12-19,55
ABC,QS,ABC-02-034,160,INDURSS,Induration Severity Score,PSI,PLAQUE 2,1,1,1,,,12,WEEK 12,2007-01-18,85
ABC,QS,ABC-02-034,161,INDURSS,Induration Severity Score,PSI,PLAQUE 2,2,2,2,,,16,WEEK 16,2007-02-15,113
ABC,QS,ABC-02-034,162,SCALSS,Scaling Severity Score,PSI,PLAQUE 2,2,2,2,Y,,1,DAY 1,2006-10-26,1
ABC,QS,ABC-02-034,163,SCALSS,Scaling Severity Score,PSI,PLAQUE 2,1,1,1,,,2,WEEK 2,2006-11-08,14
ABC,QS,ABC-02-034,164,SCALSS,Scaling Severity Score,PSI,PLAQUE 2,1,1,1,,,4,WEEK 4,2006-11-21,27
ABC,QS,ABC-02-034,165,SCALSS,Scaling Severity Score,PSI,PLAQUE 2,2,2,2,,,6,WEEK 6,2006-12-06,42
ABC,QS,ABC-02-034,166,SCALSS,Scaling Severity Score,PSI,PLAQUE 2,1,1,1,,,8,WEEK 8,2006-12-19,55
ABC,QS,ABC-02-034,167,SCALSS,Scaling Severity Score,PSI,PLAQUE 2,2,2,2,,,12,WEEK 12,2007-01-18,85
ABC,QS,ABC-02-034,168,SCALSS,Scaling Severity Score,PSI,PLAQUE 2,2,2,2,,,16,WEEK 16,2007-02-15,113
ABC,QS,ABC-02-035,1,AREASCOR,Area Score (0-6),AAPASI,LOWER EXTREMITIES,1,1,1,Y,,1,DAY 1,2006-10-31,1
ABC,QS,ABC-02-035,2,AREASCOR,Area Score (0-6),AAPASI,LOWER EXTREMITIES,1,1,1,,,2,WEEK 2,2006-11-15,16
ABC,QS,ABC-02-035,3,AREASCOR,Area Score (0-6),AAPASI,LOWER EXTREMITIES,1,1,1,,,4,WEEK 4,2006-11-28,29
ABC,QS,ABC-02-035,4,AREASCOR,Area Score (0-6),AAPASI,LOWER EXTREMITIES,1,1,1,,,6,WEEK 6,2006-12-12,43
ABC,QS,ABC-02-035,5,AREASCOR,Area Score (0-6),AAPASI,LOWER EXTREMITIES,1,1,1,,,8,WEEK 8,2006-12-28,59
ABC,QS,ABC-02-035,6,AREASCOR,Area Score (0-6),AAPASI,LOWER EXTREMITIES,1,1,1,,,12,WEEK 12,2007-01-23,85
ABC,QS,ABC-02-035,7,AREASCOR,Area Score (0-6),AAPASI,LOWER EXTREMITIES,1,1,1,,,16,WEEK 16,2007-02-20,113
ABC,QS,ABC-02-035,8,ERYTHEMA,Erythema (0-4),AAPASI,LOWER EXTREMITIES,2,2,2,Y,,1,DAY 1,2006-10-31,1
ABC,QS,ABC-02-035,9,ERYTHEMA,Erythema (0-4),AAPASI,LOWER EXTREMITIES,2,2,2,,,2,WEEK 2,2006-11-15,16
ABC,QS,ABC-02-035,10,ERYTHEMA,Erythema (0-4),AAPASI,LOWER EXTREMITIES,2,2,2,,,4,WEEK 4,2006-11-28,29
ABC,QS,ABC-02-035,11,ERYTHEMA,Erythema (0-4),AAPASI,LOWER EXTREMITIES,2,2,2,,,6,WEEK 6,2006-12-12,43
ABC,QS,ABC-02-035,12,ERYTHEMA,Erythema (0-4),AAPASI,LOWER EXTREMITIES,2,2,2,,,8,WEEK 8,2006-12-28,59
ABC,QS,ABC-02-035,13,ERYTHEMA,Erythema (0-4),AAPASI,LOWER EXTREMITIES,1,1,1,,,12,WEEK 12,2007-01-23,85
ABC,QS,ABC-02-035,14,ERYTHEMA,Erythema (0-4),AAPASI,LOWER EXTREMITIES,1,1,1,,,16,WEEK 16,2007-02-20,113
ABC,QS,ABC-02-035,15,SCALE,Scale (0-4),AAPASI,LOWER EXTREMITIES,3,3,3,Y,,1,DAY 1,2006-10-31,1
ABC,QS,ABC-02-035,16,SCALE,Scale (0-4),AAPASI,LOWER EXTREMITIES,3,3,3,,,2,WEEK 2,2006-11-15,16
ABC,QS,ABC-02-035,17,SCALE,Scale (0-4),AAPASI,LOWER EXTREMITIES,2,2,2,,,4,WEEK 4,2006-11-28,29
ABC,QS,ABC-02-035,18,SCALE,Scale (0-4),AAPASI,LOWER EXTREMITIES,2,2,2,,,6,WEEK 6,2006-12-12,43
ABC,QS,ABC-02-035,19,SCALE,Scale (0-4),AAPASI,LOWER EXTREMITIES,1,1,1,,,8,WEEK 8,2006-12-28,59
ABC,QS,ABC-02-035,20,SCALE,Scale (0-4),AAPASI,LOWER EXTREMITIES,1,1,1,,,12,WEEK 12,2007-01-23,85
ABC,QS,ABC-02-035,21,SCALE,Scale (0-4),AAPASI,LOWER EXTREMITIES,1,1,1,,,16,WEEK 16,2007-02-20,113
ABC,QS,ABC-02-035,22,THCKNESS,Induration (0-4),AAPASI,LOWER EXTREMITIES,3,3,3,Y,,1,DAY 1,2006-10-31,1
ABC,QS,ABC-02-035,23,THCKNESS,Induration (0-4),AAPASI,LOWER EXTREMITIES,3,3,3,,,2,WEEK 2,2006-11-15,16
ABC,QS,ABC-02-035,24,THCKNESS,Induration (0-4),AAPASI,LOWER EXTREMITIES,3,3,3,,,4,WEEK 4,2006-11-28,29
ABC,QS,ABC-02-035,25,THCKNESS,Induration (0-4),AAPASI,LOWER EXTREMITIES,3,3,3,,,6,WEEK 6,2006-12-12,43
ABC,QS,ABC-02-035,26,THCKNESS,Induration (0-4),AAPASI,LOWER EXTREMITIES,2,2,2,,,8,WEEK 8,2006-12-28,59
ABC,QS,ABC-02-035,27,THCKNESS,Induration (0-4),AAPASI,LOWER EXTREMITIES,1,1,1,,,12,WEEK 12,2007-01-23,85
ABC,QS,ABC-02-035,28,THCKNESS,Induration (0-4),AAPASI,LOWER EXTREMITIES,1,1,1,,,16,WEEK 16,2007-02-20,113
ABC,QS,ABC-02-035,29,AREASCOR,Area Score (0-6),AAPASI,TRUNK,0,0,0,Y,,1,DAY 1,2006-10-31,1
ABC,QS,ABC-02-035,30,AREASCOR,Area Score (0-6),AAPASI,TRUNK,0,0,0,,,2,WEEK 2,2006-11-15,16
ABC,QS,ABC-02-035,31,AREASCOR,Area Score (0-6),AAPASI,TRUNK,0,0,0,,,4,WEEK 4,2006-11-28,29
ABC,QS,ABC-02-035,32,AREASCOR,Area Score (0-6),AAPASI,TRUNK,0,0,0,,,6,WEEK 6,2006-12-12,43
ABC,QS,ABC-02-035,33,AREASCOR,Area Score (0-6),AAPASI,TRUNK,0,0,0,,,8,WEEK 8,2006-12-28,59
ABC,QS,ABC-02-035,34,AREASCOR,Area Score (0-6),AAPASI,TRUNK,0,0,0,,,12,WEEK 12,2007-01-23,85
ABC,QS,ABC-02-035,35,AREASCOR,Area Score (0-6),AAPASI,TRUNK,0,0,0,,,16,WEEK 16,2007-02-20,113
ABC,QS,ABC-02-035,36,ERYTHEMA,Erythema (0-4),AAPASI,TRUNK,0,0,0,Y,,1,DAY 1,2006-10-31,1
ABC,QS,ABC-02-035,37,ERYTHEMA,Erythema (0-4),AAPASI,TRUNK,0,0,0,,,2,WEEK 2,2006-11-15,16
ABC,QS,ABC-02-035,38,ERYTHEMA,Erythema (0-4),AAPASI,TRUNK,0,0,0,,,4,WEEK 4,2006-11-28,29
ABC,QS,ABC-02-035,39,ERYTHEMA,Erythema (0-4),AAPASI,TRUNK,0,0,0,,,6,WEEK 6,2006-12-12,43
ABC,QS,ABC-02-035,40,ERYTHEMA,Erythema (0-4),AAPASI,TRUNK,0,0,0,,,8,WEEK 8,2006-12-28,59
ABC,QS,ABC-02-035,41,ERYTHEMA,Erythema (0-4),AAPASI,TRUNK,0,0,0,,,12,WEEK 12,2007-01-23,85
ABC,QS,ABC-02-035,42,ERYTHEMA,Erythema (0-4),AAPASI,TRUNK,1,1,1,,,16,WEEK 16,2007-02-20,113
ABC,QS,ABC-02-035,43,SCALE,Scale (0-4),AAPASI,TRUNK,0,0,0,Y,,1,DAY 1,2006-10-31,1
ABC,QS,ABC-02-035,44,SCALE,Scale (0-4),AAPASI,TRUNK,0,0,0,,,2,WEEK 2,2006-11-15,16
ABC,QS,ABC-02-035,45,SCALE,Scale (0-4),AAPASI,TRUNK,0,0,0,,,4,WEEK 4,2006-11-28,29
ABC,QS,ABC-02-035,46,SCALE,Scale (0-4),AAPASI,TRUNK,0,0,0,,,6,WEEK 6,2006-12-12,43
ABC,QS,ABC-02-035,47,SCALE,Scale (0-4),AAPASI,TRUNK,0,0,0,,,8,WEEK 8,2006-12-28,59
ABC,QS,ABC-02-035,48,SCALE,Scale (0-4),AAPASI,TRUNK,0,0,0,,,12,WEEK 12,2007-01-23,85
ABC,QS,ABC-02-035,49,SCALE,Scale (0-4),AAPASI,TRUNK,1,1,1,,,16,WEEK 16,2007-02-20,113
ABC,QS,ABC-02-035,50,THCKNESS,Induration (0-4),AAPASI,TRUNK,0,0,0,Y,,1,DAY 1,2006-10-31,1
ABC,QS,ABC-02-035,51,THCKNESS,Induration (0-4),AAPASI,TRUNK,0,0,0,,,2,WEEK 2,2006-11-15,16
ABC,QS,ABC-02-035,52,THCKNESS,Induration (0-4),AAPASI,TRUNK,0,0,0,,,4,WEEK 4,2006-11-28,29
ABC,QS,ABC-02-035,53,THCKNESS,Induration (0-4),AAPASI,TRUNK,0,0,0,,,6,WEEK 6,2006-12-12,43
ABC,QS,ABC-02-035,54,THCKNESS,Induration (0-4),AAPASI,TRUNK,0,0,0,,,8,WEEK 8,2006-12-28,59
ABC,QS,ABC-02-035,55,THCKNESS,Induration (0-4),AAPASI,TRUNK,0,0,0,,,12,WEEK 12,2007-01-23,85
ABC,QS,ABC-02-035,56,THCKNESS,Induration (0-4),AAPASI,TRUNK,1,1,1,,,16,WEEK 16,2007-02-20,113
ABC,QS,ABC-02-035,57,AREASCOR,Area Score (0-6),AAPASI,UPPER EXTREMITIES,1,1,1,Y,,1,DAY 1,2006-10-31,1
ABC,QS,ABC-02-035,58,AREASCOR,Area Score (0-6),AAPASI,UPPER EXTREMITIES,1,1,1,,,2,WEEK 2,2006-11-15,16
ABC,QS,ABC-02-035,59,AREASCOR,Area Score (0-6),AAPASI,UPPER EXTREMITIES,1,1,1,,,4,WEEK 4,2006-11-28,29
ABC,QS,ABC-02-035,60,AREASCOR,Area Score (0-6),AAPASI,UPPER EXTREMITIES,1,1,1,,,6,WEEK 6,2006-12-12,43
ABC,QS,ABC-02-035,61,AREASCOR,Area Score (0-6),AAPASI,UPPER EXTREMITIES,1,1,1,,,8,WEEK 8,2006-12-28,59
ABC,QS,ABC-02-035,62,AREASCOR,Area Score (0-6),AAPASI,UPPER EXTREMITIES,1,1,1,,,12,WEEK 12,2007-01-23,85
ABC,QS,ABC-02-035,63,AREASCOR,Area Score (0-6),AAPASI,UPPER EXTREMITIES,1,1,1,,,16,WEEK 16,2007-02-20,113
ABC,QS,ABC-02-035,64,ERYTHEMA,Erythema (0-4),AAPASI,UPPER EXTREMITIES,2,2,2,Y,,1,DAY 1,2006-10-31,1
ABC,QS,ABC-02-035,65,ERYTHEMA,Erythema (0-4),AAPASI,UPPER EXTREMITIES,2,2,2,,,2,WEEK 2,2006-11-15,16
ABC,QS,ABC-02-035,66,ERYTHEMA,Erythema (0-4),AAPASI,UPPER EXTREMITIES,2,2,2,,,4,WEEK 4,2006-11-28,29
ABC,QS,ABC-02-035,67,ERYTHEMA,Erythema (0-4),AAPASI,UPPER EXTREMITIES,2,2,2,,,6,WEEK 6,2006-12-12,43
ABC,QS,ABC-02-035,68,ERYTHEMA,Erythema (0-4),AAPASI,UPPER EXTREMITIES,2,2,2,,,8,WEEK 8,2006-12-28,59
ABC,QS,ABC-02-035,69,ERYTHEMA,Erythema (0-4),AAPASI,UPPER EXTREMITIES,2,2,2,,,12,WEEK 12,2007-01-23,85
ABC,QS,ABC-02-035,70,ERYTHEMA,Erythema (0-4),AAPASI,UPPER EXTREMITIES,2,2,2,,,16,WEEK 16,2007-02-20,113
ABC,QS,ABC-02-035,71,SCALE,Scale (0-4),AAPASI,UPPER EXTREMITIES,3,3,3,Y,,1,DAY 1,2006-10-31,1
ABC,QS,ABC-02-035,72,SCALE,Scale (0-4),AAPASI,UPPER EXTREMITIES,3,3,3,,,2,WEEK 2,2006-11-15,16
ABC,QS,ABC-02-035,73,SCALE,Scale (0-4),AAPASI,UPPER EXTREMITIES,2,2,2,,,4,WEEK 4,2006-11-28,29
ABC,QS,ABC-02-035,74,SCALE,Scale (0-4),AAPASI,UPPER EXTREMITIES,2,2,2,,,6,WEEK 6,2006-12-12,43
ABC,QS,ABC-02-035,75,SCALE,Scale (0-4),AAPASI,UPPER EXTREMITIES,1,1,1,,,8,WEEK 8,2006-12-28,59
ABC,QS,ABC-02-035,76,SCALE,Scale (0-4),AAPASI,UPPER EXTREMITIES,2,2,2,,,12,WEEK 12,2007-01-23,85
ABC,QS,ABC-02-035,77,SCALE,Scale (0-4),AAPASI,UPPER EXTREMITIES,2,2,2,,,16,WEEK 16,2007-02-20,113
ABC,QS,ABC-02-035,78,THCKNESS,Induration (0-4),AAPASI,UPPER EXTREMITIES,3,3,3,Y,,1,DAY 1,2006-10-31,1
ABC,QS,ABC-02-035,79,THCKNESS,Induration (0-4),AAPASI,UPPER EXTREMITIES,3,3,3,,,2,WEEK 2,2006-11-15,16
ABC,QS,ABC-02-035,80,THCKNESS,Induration (0-4),AAPASI,UPPER EXTREMITIES,3,3,3,,,4,WEEK 4,2006-11-28,29
ABC,QS,ABC-02-035,81,THCKNESS,Induration (0-4),AAPASI,UPPER EXTREMITIES,3,3,3,,,6,WEEK 6,2006-12-12,43
ABC,QS,ABC-02-035,82,THCKNESS,Induration (0-4),AAPASI,UPPER EXTREMITIES,2,2,2,,,8,WEEK 8,2006-12-28,59
ABC,QS,ABC-02-035,83,THCKNESS,Induration (0-4),AAPASI,UPPER EXTREMITIES,2,2,2,,,12,WEEK 12,2007-01-23,85
ABC,QS,ABC-02-035,84,THCKNESS,Induration (0-4),AAPASI,UPPER EXTREMITIES,2,2,2,,,16,WEEK 16,2007-02-20,113
ABC,QS,ABC-02-035,85,PRURPS,Pruritus Point Scale,PRURITUS ASSESSMENT,,3,3,3,Y,,1,DAY 1,2006-10-31,1
ABC,QS,ABC-02-035,86,PRURPS,Pruritus Point Scale,PRURITUS ASSESSMENT,,1,1,1,,,2,WEEK 2,2006-11-15,16
ABC,QS,ABC-02-035,87,PRURPS,Pruritus Point Scale,PRURITUS ASSESSMENT,,1,1,1,,,4,WEEK 4,2006-11-28,29
ABC,QS,ABC-02-035,88,PRURPS,Pruritus Point Scale,PRURITUS ASSESSMENT,,1,1,1,,,6,WEEK 6,2006-12-12,43
ABC,QS,ABC-02-035,89,PRURPS,Pruritus Point Scale,PRURITUS ASSESSMENT,,1,1,1,,,8,WEEK 8,2006-12-28,59
ABC,QS,ABC-02-035,90,PRURPS,Pruritus Point Scale,PRURITUS ASSESSMENT,,3,3,3,,,12,WEEK 12,2007-01-23,85
ABC,QS,ABC-02-035,91,PRURPS,Pruritus Point Scale,PRURITUS ASSESSMENT,,3,3,3,,,16,WEEK 16,2007-02-20,113
ABC,QS,ABC-02-035,92,PSGA,PSGA Score,PSGA,,3,3,3,Y,,1,DAY 1,2006-10-31,1
ABC,QS,ABC-02-035,93,PSGA,PSGA Score,PSGA,,3,3,3,,,2,WEEK 2,2006-11-15,16
ABC,QS,ABC-02-035,94,PSGA,PSGA Score,PSGA,,2,2,2,,,4,WEEK 4,2006-11-28,29
ABC,QS,ABC-02-035,95,PSGA,PSGA Score,PSGA,,2,2,2,,,6,WEEK 6,2006-12-12,43
ABC,QS,ABC-02-035,96,PSGA,PSGA Score,PSGA,,2,2,2,,,8,WEEK 8,2006-12-28,59
ABC,QS,ABC-02-035,97,PSGA,PSGA Score,PSGA,,2,2,2,,,12,WEEK 12,2007-01-23,85
ABC,QS,ABC-02-035,98,PSGA,PSGA Score,PSGA,,2,2,2,,,16,WEEK 16,2007-02-20,113
ABC,QS,ABC-02-035,99,BODYAC,Body Area Code,PSI,PLAQUE 1,7,7,7,Y,,1,DAY 1,2006-10-31,1
ABC,QS,ABC-02-035,100,BODYAC,Body Area Code,PSI,PLAQUE 1,7,7,7,,,2,WEEK 2,2006-11-15,16
ABC,QS,ABC-02-035,101,BODYAC,Body Area Code,PSI,PLAQUE 1,7,7,7,,,4,WEEK 4,2006-11-28,29
ABC,QS,ABC-02-035,102,BODYAC,Body Area Code,PSI,PLAQUE 1,7,7,7,,,6,WEEK 6,2006-12-12,43
ABC,QS,ABC-02-035,103,BODYAC,Body Area Code,PSI,PLAQUE 1,7,7,7,,,8,WEEK 8,2006-12-28,59
ABC,QS,ABC-02-035,104,BODYAC,Body Area Code,PSI,PLAQUE 1,7,7,7,,,12,WEEK 12,2007-01-23,85
ABC,QS,ABC-02-035,105,BODYAC,Body Area Code,PSI,PLAQUE 1,7,7,7,,,16,WEEK 16,2007-02-20,113
ABC,QS,ABC-02-035,106,CPSS,CPSS,PSI,PLAQUE 1,8,8,8,Y,Y,1,DAY 1,2006-10-31,1
ABC,QS,ABC-02-035,107,CPSS,CPSS,PSI,PLAQUE 1,8,8,8,,Y,2,WEEK 2,2006-11-15,16
ABC,QS,ABC-02-035,108,CPSS,CPSS,PSI,PLAQUE 1,7,7,7,,Y,4,WEEK 4,2006-11-28,29
ABC,QS,ABC-02-035,109,CPSS,CPSS,PSI,PLAQUE 1,7,7,7,,Y,6,WEEK 6,2006-12-12,43
ABC,QS,ABC-02-035,110,CPSS,CPSS,PSI,PLAQUE 1,5,5,5,,Y,8,WEEK 8,2006-12-28,59
ABC,QS,ABC-02-035,111,CPSS,CPSS,PSI,PLAQUE 1,3,3,3,,Y,12,WEEK 12,2007-01-23,85
ABC,QS,ABC-02-035,112,CPSS,CPSS,PSI,PLAQUE 1,3,3,3,,Y,16,WEEK 16,2007-02-20,113
ABC,QS,ABC-02-035,113,ERYTHSS,Erythema Severity Score,PSI,PLAQUE 1,2,2,2,Y,,1,DAY 1,2006-10-31,1
ABC,QS,ABC-02-035,114,ERYTHSS,Erythema Severity Score,PSI,PLAQUE 1,2,2,2,,,2,WEEK 2,2006-11-15,16
ABC,QS,ABC-02-035,115,ERYTHSS,Erythema Severity Score,PSI,PLAQUE 1,2,2,2,,,4,WEEK 4,2006-11-28,29
ABC,QS,ABC-02-035,116,ERYTHSS,Erythema Severity Score,PSI,PLAQUE 1,2,2,2,,,6,WEEK 6,2006-12-12,43
ABC,QS,ABC-02-035,117,ERYTHSS,Erythema Severity Score,PSI,PLAQUE 1,2,2,2,,,8,WEEK 8,2006-12-28,59
ABC,QS,ABC-02-035,118,ERYTHSS,Erythema Severity Score,PSI,PLAQUE 1,1,1,1,,,12,WEEK 12,2007-01-23,85
ABC,QS,ABC-02-035,119,ERYTHSS,Erythema Severity Score,PSI,PLAQUE 1,1,1,1,,,16,WEEK 16,2007-02-20,113
ABC,QS,ABC-02-035,120,INDURSS,Induration Severity Score,PSI,PLAQUE 1,3,3,3,Y,,1,DAY 1,2006-10-31,1
ABC,QS,ABC-02-035,121,INDURSS,Induration Severity Score,PSI,PLAQUE 1,3,3,3,,,2,WEEK 2,2006-11-15,16
ABC,QS,ABC-02-035,122,INDURSS,Induration Severity Score,PSI,PLAQUE 1,3,3,3,,,4,WEEK 4,2006-11-28,29
ABC,QS,ABC-02-035,123,INDURSS,Induration Severity Score,PSI,PLAQUE 1,3,3,3,,,6,WEEK 6,2006-12-12,43
ABC,QS,ABC-02-035,124,INDURSS,Induration Severity Score,PSI,PLAQUE 1,2,2,2,,,8,WEEK 8,2006-12-28,59
ABC,QS,ABC-02-035,125,INDURSS,Induration Severity Score,PSI,PLAQUE 1,1,1,1,,,12,WEEK 12,2007-01-23,85
ABC,QS,ABC-02-035,126,INDURSS,Induration Severity Score,PSI,PLAQUE 1,1,1,1,,,16,WEEK 16,2007-02-20,113
ABC,QS,ABC-02-035,127,SCALSS,Scaling Severity Score,PSI,PLAQUE 1,3,3,3,Y,,1,DAY 1,2006-10-31,1
ABC,QS,ABC-02-035,128,SCALSS,Scaling Severity Score,PSI,PLAQUE 1,3,3,3,,,2,WEEK 2,2006-11-15,16
ABC,QS,ABC-02-035,129,SCALSS,Scaling Severity Score,PSI,PLAQUE 1,2,2,2,,,4,WEEK 4,2006-11-28,29
ABC,QS,ABC-02-035,130,SCALSS,Scaling Severity Score,PSI,PLAQUE 1,2,2,2,,,6,WEEK 6,2006-12-12,43
ABC,QS,ABC-02-035,131,SCALSS,Scaling Severity Score,PSI,PLAQUE 1,1,1,1,,,8,WEEK 8,2006-12-28,59
ABC,QS,ABC-02-035,132,SCALSS,Scaling Severity Score,PSI,PLAQUE 1,1,1,1,,,12,WEEK 12,2007-01-23,85
ABC,QS,ABC-02-035,133,SCALSS,Scaling Severity Score,PSI,PLAQUE 1,1,1,1,,,16,WEEK 16,2007-02-20,113
ABC,QS,ABC-02-035,134,BODYAC,Body Area Code,PSI,PLAQUE 2,15,15,15,Y,,1,DAY 1,2006-10-31,1
ABC,QS,ABC-02-035,135,BODYAC,Body Area Code,PSI,PLAQUE 2,15,15,15,,,2,WEEK 2,2006-11-15,16
ABC,QS,ABC-02-035,136,BODYAC,Body Area Code,PSI,PLAQUE 2,15,15,15,,,4,WEEK 4,2006-11-28,29
ABC,QS,ABC-02-035,137,BODYAC,Body Area Code,PSI,PLAQUE 2,15,15,15,,,6,WEEK 6,2006-12-12,43
ABC,QS,ABC-02-035,138,BODYAC,Body Area Code,PSI,PLAQUE 2,15,15,15,,,8,WEEK 8,2006-12-28,59
ABC,QS,ABC-02-035,139,BODYAC,Body Area Code,PSI,PLAQUE 2,15,15,15,,,12,WEEK 12,2007-01-23,85
ABC,QS,ABC-02-035,140,BODYAC,Body Area Code,PSI,PLAQUE 2,15,15,15,,,16,WEEK 16,2007-02-20,113
ABC,QS,ABC-02-035,141,CPSS,CPSS,PSI,PLAQUE 2,8,8,8,Y,Y,1,DAY 1,2006-10-31,1
ABC,QS,ABC-02-035,142,CPSS,CPSS,PSI,PLAQUE 2,8,8,8,,Y,2,WEEK 2,2006-11-15,16
ABC,QS,ABC-02-035,143,CPSS,CPSS,PSI,PLAQUE 2,7,7,7,,Y,4,WEEK 4,2006-11-28,29
ABC,QS,ABC-02-035,144,CPSS,CPSS,PSI,PLAQUE 2,7,7,7,,Y,6,WEEK 6,2006-12-12,43
ABC,QS,ABC-02-035,145,CPSS,CPSS,PSI,PLAQUE 2,5,5,5,,Y,8,WEEK 8,2006-12-28,59
ABC,QS,ABC-02-035,146,CPSS,CPSS,PSI,PLAQUE 2,5,5,5,,Y,12,WEEK 12,2007-01-23,85
ABC,QS,ABC-02-035,147,CPSS,CPSS,PSI,PLAQUE 2,6,6,6,,Y,16,WEEK 16,2007-02-20,113
ABC,QS,ABC-02-035,148,ERYTHSS,Erythema Severity Score,PSI,PLAQUE 2,2,2,2,Y,,1,DAY 1,2006-10-31,1
ABC,QS,ABC-02-035,149,ERYTHSS,Erythema Severity Score,PSI,PLAQUE 2,2,2,2,,,2,WEEK 2,2006-11-15,16
ABC,QS,ABC-02-035,150,ERYTHSS,Erythema Severity Score,PSI,PLAQUE 2,2,2,2,,,4,WEEK 4,2006-11-28,29
ABC,QS,ABC-02-035,151,ERYTHSS,Erythema Severity Score,PSI,PLAQUE 2,2,2,2,,,6,WEEK 6,2006-12-12,43
ABC,QS,ABC-02-035,152,ERYTHSS,Erythema Severity Score,PSI,PLAQUE 2,2,2,2,,,8,WEEK 8,2006-12-28,59
ABC,QS,ABC-02-035,153,ERYTHSS,Erythema Severity Score,PSI,PLAQUE 2,1,1,1,,,12,WEEK 12,2007-01-23,85
ABC,QS,ABC-02-035,154,ERYTHSS,Erythema Severity Score,PSI,PLAQUE 2,2,2,2,,,16,WEEK 16,2007-02-20,113
ABC,QS,ABC-02-035,155,INDURSS,Induration Severity Score,PSI,PLAQUE 2,3,3,3,Y,,1,DAY 1,2006-10-31,1
ABC,QS,ABC-02-035,156,INDURSS,Induration Severity Score,PSI,PLAQUE 2,3,3,3,,,2,WEEK 2,2006-11-15,16
ABC,QS,ABC-02-035,157,INDURSS,Induration Severity Score,PSI,PLAQUE 2,3,3,3,,,4,WEEK 4,2006-11-28,29
ABC,QS,ABC-02-035,158,INDURSS,Induration Severity Score,PSI,PLAQUE 2,3,3,3,,,6,WEEK 6,2006-12-12,43
ABC,QS,ABC-02-035,159,INDURSS,Induration Severity Score,PSI,PLAQUE 2,2,2,2,,,8,WEEK 8,2006-12-28,59
ABC,QS,ABC-02-035,160,INDURSS,Induration Severity Score,PSI,PLAQUE 2,2,2,2,,,12,WEEK 12,2007-01-23,85
ABC,QS,ABC-02-035,161,INDURSS,Induration Severity Score,PSI,PLAQUE 2,2,2,2,,,16,WEEK 16,2007-02-20,113
ABC,QS,ABC-02-035,162,SCALSS,Scaling Severity Score,PSI,PLAQUE 2,3,3,3,Y,,1,DAY 1,2006-10-31,1
ABC,QS,ABC-02-035,163,SCALSS,Scaling Severity Score,PSI,PLAQUE 2,3,3,3,,,2,WEEK 2,2006-11-15,16
ABC,QS,ABC-02-035,164,SCALSS,Scaling Severity Score,PSI,PLAQUE 2,2,2,2,,,4,WEEK 4,2006-11-28,29
ABC,QS,ABC-02-035,165,SCALSS,Scaling Severity Score,PSI,PLAQUE 2,2,2,2,,,6,WEEK 6,2006-12-12,43
ABC,QS,ABC-02-035,166,SCALSS,Scaling Severity Score,PSI,PLAQUE 2,1,1,1,,,8,WEEK 8,2006-12-28,59
ABC,QS,ABC-02-035,167,SCALSS,Scaling Severity Score,PSI,PLAQUE 2,2,2,2,,,12,WEEK 12,2007-01-23,85
ABC,QS,ABC-02-035,168,SCALSS,Scaling Severity Score,PSI,PLAQUE 2,2,2,2,,,16,WEEK 16,2007-02-20,113
ABC,QS,ABC-02-036,1,AREASCOR,Area Score (0-6),AAPASI,LOWER EXTREMITIES,2,2,2,Y,,1,DAY 1,2006-11-01,1
ABC,QS,ABC-02-036,2,AREASCOR,Area Score (0-6),AAPASI,LOWER EXTREMITIES,2,2,2,,,2,WEEK 2,2006-11-15,15
ABC,QS,ABC-02-036,3,AREASCOR,Area Score (0-6),AAPASI,LOWER EXTREMITIES,2,2,2,,,4,WEEK 4,2006-11-29,29
ABC,QS,ABC-02-036,4,AREASCOR,Area Score (0-6),AAPASI,LOWER EXTREMITIES,2,2,2,,,6,WEEK 6,2006-12-14,44
ABC,QS,ABC-02-036,5,AREASCOR,Area Score (0-6),AAPASI,LOWER EXTREMITIES,2,2,2,,,8,WEEK 8,2006-12-28,58
ABC,QS,ABC-02-036,6,AREASCOR,Area Score (0-6),AAPASI,LOWER EXTREMITIES,1,1,1,,,12,WEEK 12,2007-01-24,85
ABC,QS,ABC-02-036,7,AREASCOR,Area Score (0-6),AAPASI,LOWER EXTREMITIES,1,1,1,,,16,WEEK 16,2007-02-21,113
ABC,QS,ABC-02-036,8,ERYTHEMA,Erythema (0-4),AAPASI,LOWER EXTREMITIES,3,3,3,Y,,1,DAY 1,2006-11-01,1
ABC,QS,ABC-02-036,9,ERYTHEMA,Erythema (0-4),AAPASI,LOWER EXTREMITIES,3,3,3,,,2,WEEK 2,2006-11-15,15
ABC,QS,ABC-02-036,10,ERYTHEMA,Erythema (0-4),AAPASI,LOWER EXTREMITIES,3,3,3,,,4,WEEK 4,2006-11-29,29
ABC,QS,ABC-02-036,11,ERYTHEMA,Erythema (0-4),AAPASI,LOWER EXTREMITIES,3,3,3,,,6,WEEK 6,2006-12-14,44
ABC,QS,ABC-02-036,12,ERYTHEMA,Erythema (0-4),AAPASI,LOWER EXTREMITIES,2,2,2,,,8,WEEK 8,2006-12-28,58
ABC,QS,ABC-02-036,13,ERYTHEMA,Erythema (0-4),AAPASI,LOWER EXTREMITIES,2,2,2,,,12,WEEK 12,2007-01-24,85
ABC,QS,ABC-02-036,14,ERYTHEMA,Erythema (0-4),AAPASI,LOWER EXTREMITIES,3,3,3,,,16,WEEK 16,2007-02-21,113
ABC,QS,ABC-02-036,15,SCALE,Scale (0-4),AAPASI,LOWER EXTREMITIES,3,3,3,Y,,1,DAY 1,2006-11-01,1
ABC,QS,ABC-02-036,16,SCALE,Scale (0-4),AAPASI,LOWER EXTREMITIES,3,3,3,,,2,WEEK 2,2006-11-15,15
ABC,QS,ABC-02-036,17,SCALE,Scale (0-4),AAPASI,LOWER EXTREMITIES,3,3,3,,,4,WEEK 4,2006-11-29,29
ABC,QS,ABC-02-036,18,SCALE,Scale (0-4),AAPASI,LOWER EXTREMITIES,3,3,3,,,6,WEEK 6,2006-12-14,44
ABC,QS,ABC-02-036,19,SCALE,Scale (0-4),AAPASI,LOWER EXTREMITIES,2,2,2,,,8,WEEK 8,2006-12-28,58
ABC,QS,ABC-02-036,20,SCALE,Scale (0-4),AAPASI,LOWER EXTREMITIES,2,2,2,,,12,WEEK 12,2007-01-24,85
ABC,QS,ABC-02-036,21,SCALE,Scale (0-4),AAPASI,LOWER EXTREMITIES,2,2,2,,,16,WEEK 16,2007-02-21,113
ABC,QS,ABC-02-036,22,THCKNESS,Induration (0-4),AAPASI,LOWER EXTREMITIES,3,3,3,Y,,1,DAY 1,2006-11-01,1
ABC,QS,ABC-02-036,23,THCKNESS,Induration (0-4),AAPASI,LOWER EXTREMITIES,3,3,3,,,2,WEEK 2,2006-11-15,15
ABC,QS,ABC-02-036,24,THCKNESS,Induration (0-4),AAPASI,LOWER EXTREMITIES,2,2,2,,,4,WEEK 4,2006-11-29,29
ABC,QS,ABC-02-036,25,THCKNESS,Induration (0-4),AAPASI,LOWER EXTREMITIES,2,2,2,,,6,WEEK 6,2006-12-14,44
