STUDYID,RDOMAIN,USUBJID,IDVAR,IDVARVAL,QNAM,QLABEL,QVAL,QORIG,QEVAL
ABC,EX,ABC-01-049,EXSEQ,1,MDBASEL,Baseline to Week 2 Visit,0,CRF,
ABC,EX,ABC-01-049,EXSEQ,1,MDPVET,Prior Visit to Early Term,0,CRF,
ABC,EX,ABC-01-049,EXSEQ,1,MDWK2,Week 2 to Week 4 Visit,1,CRF,
ABC,EX,ABC-01-049,EXSEQ,1,MDWK4,Week 4 to Week 6 Visit,0,CRF,
ABC,EX,ABC-01-049,EXSEQ,1,MDWK6,Week 6 to Week 8 Visit,0,CRF,
ABC,EX,ABC-01-049,EXSEQ,1,MDWK8,Week 8 to Week 12 Visit,0,CRF,
ABC,EX,ABC-01-049,EXSEQ,1,RESUME1,Resume Treatment to Target Plaque 1,N,CRF,
ABC,EX,ABC-01-049,EXSEQ,1,RESUME2,Resume Treatment to Target Plaque 2,N,CRF,
ABC,EX,ABC-01-049,EXSEQ,1,RESUME3,Resumed Any Treatment to Treated Areas,N,CRF,
ABC,EX,ABC-01-050,EXSEQ,1,MDBASEL,Baseline to Week 2 Visit,0,CRF,
ABC,EX,ABC-01-050,EXSEQ,1,MDPVET,Prior Visit to Early Term,0,CRF,
ABC,EX,ABC-01-050,EXSEQ,1,MDWK2,Week 2 to Week 4 Visit,0,CRF,
ABC,EX,ABC-01-050,EXSEQ,1,MDWK4,Week 4 to Week 6 Visit,0,CRF,
ABC,EX,ABC-01-050,EXSEQ,1,MDWK6,Week 6 to Week 8 Visit,0,CRF,
ABC,EX,ABC-01-050,EXSEQ,1,MDWK8,Week 8 to Week 12 Visit,0,CRF,
ABC,EX,ABC-01-050,EXSEQ,1,RESUME1,Resume Treatment to Target Plaque 1,N,CRF,
ABC,EX,ABC-01-050,EXSEQ,1,RESUME2,Resume Treatment to Target Plaque 2,N,CRF,
ABC,EX,ABC-01-050,EXSEQ,1,RESUME3,Resumed Any Treatment to Treated Areas,N,CRF,
ABC,EX,ABC-01-051,EXSEQ,1,MDBASEL,Baseline to Week 2 Visit,0,CRF,
ABC,EX,ABC-01-051,EXSEQ,1,MDPVET,Prior Visit to Early Term,0,CRF,
ABC,EX,ABC-01-051,EXSEQ,1,MDWK2,Week 2 to Week 4 Visit,0,CRF,
ABC,EX,ABC-01-051,EXSEQ,1,MDWK4,Week 4 to Week 6 Visit,0,CRF,
ABC,EX,ABC-01-051,EXSEQ,1,MDWK6,Week 6 to Week 8 Visit,0,CRF,
ABC,EX,ABC-01-051,EXSEQ,1,MDWK8,Week 8 to Week 12 Visit,0,CRF,
ABC,EX,ABC-01-051,EXSEQ,1,RESUME1,Resume Treatment to Target Plaque 1,N,CRF,
ABC,EX,ABC-01-051,EXSEQ,1,RESUME2,Resume Treatment to Target Plaque 2,N,CRF,
ABC,EX,ABC-01-051,EXSEQ,1,RESUME3,Resumed Any Treatment to Treated Areas,N,CRF,
ABC,EX,ABC-01-052,EXSEQ,1,MDBASEL,Baseline to Week 2 Visit,0,CRF,
ABC,EX,ABC-01-052,EXSEQ,1,MDPVET,Prior Visit to Early Term,0,CRF,
ABC,EX,ABC-01-052,EXSEQ,1,MDWK2,Week 2 to Week 4 Visit,0,CRF,
ABC,EX,ABC-01-052,EXSEQ,1,MDWK4,Week 4 to Week 6 Visit,0,CRF,
ABC,EX,ABC-01-052,EXSEQ,1,MDWK6,Week 6 to Week 8 Visit,2,CRF,
ABC,EX,ABC-01-052,EXSEQ,1,MDWK8,Week 8 to Week 12 Visit,0,CRF,
ABC,EX,ABC-01-052,EXSEQ,1,RESUME1,Resume Treatment to Target Plaque 1,N,CRF,
ABC,EX,ABC-01-052,EXSEQ,1,RESUME2,Resume Treatment to Target Plaque 2,N,CRF,
ABC,EX,ABC-01-052,EXSEQ,1,RESUME3,Resumed Any Treatment to Treated Areas,Y,CRF,
ABC,EX,ABC-01-053,EXSEQ,1,MDBASEL,Baseline to Week 2 Visit,0,CRF,
ABC,EX,ABC-01-053,EXSEQ,1,MDWK2,Week 2 to Week 4 Visit,0,CRF,
ABC,EX,ABC-01-053,EXSEQ,1,MDWK4,Week 4 to Week 6 Visit,0,CRF,
ABC,EX,ABC-01-054,EXSEQ,1,MDBASEL,Baseline to Week 2 Visit,1,CRF,
ABC,EX,ABC-01-054,EXSEQ,1,MDPVET,Prior Visit to Early Term,0,CRF,
ABC,EX,ABC-01-054,EXSEQ,1,MDWK2,Week 2 to Week 4 Visit,0,CRF,
ABC,EX,ABC-01-054,EXSEQ,1,MDWK4,Week 4 to Week 6 Visit,0,CRF,
ABC,EX,ABC-01-054,EXSEQ,1,MDWK6,Week 6 to Week 8 Visit,0,CRF,
ABC,EX,ABC-01-054,EXSEQ,1,MDWK8,Week 8 to Week 12 Visit,0,CRF,
ABC,EX,ABC-01-054,EXSEQ,1,RESUME1,Resume Treatment to Target Plaque 1,N,CRF,
ABC,EX,ABC-01-054,EXSEQ,1,RESUME2,Resume Treatment to Target Plaque 2,N,CRF,
ABC,EX,ABC-01-054,EXSEQ,1,RESUME3,Resumed Any Treatment to Treated Areas,N,CRF,
ABC,EX,ABC-01-055,EXSEQ,1,MDBASEL,Baseline to Week 2 Visit,1,CRF,
ABC,EX,ABC-01-055,EXSEQ,1,MDPVET,Prior Visit to Early Term,0,CRF,
ABC,EX,ABC-01-055,EXSEQ,1,MDWK2,Week 2 to Week 4 Visit,0,CRF,
ABC,EX,ABC-01-055,EXSEQ,1,MDWK4,Week 4 to Week 6 Visit,0,CRF,
ABC,EX,ABC-01-055,EXSEQ,1,MDWK6,Week 6 to Week 8 Visit,0,CRF,
ABC,EX,ABC-01-055,EXSEQ,1,MDWK8,Week 8 to Week 12 Visit,0,CRF,
ABC,EX,ABC-01-055,EXSEQ,1,RESUME1,Resume Treatment to Target Plaque 1,N,CRF,
ABC,EX,ABC-01-055,EXSEQ,1,RESUME2,Resume Treatment to Target Plaque 2,N,CRF,
ABC,EX,ABC-01-055,EXSEQ,1,RESUME3,Resumed Any Treatment to Treated Areas,N,CRF,
ABC,EX,ABC-01-056,EXSEQ,1,MDBASEL,Baseline to Week 2 Visit,0,CRF,
ABC,EX,ABC-01-056,EXSEQ,1,MDPVET,Prior Visit to Early Term,0,CRF,
ABC,EX,ABC-01-056,EXSEQ,1,MDWK2,Week 2 to Week 4 Visit,0,CRF,
ABC,EX,ABC-01-056,EXSEQ,1,MDWK4,Week 4 to Week 6 Visit,0,CRF,
ABC,EX,ABC-01-056,EXSEQ,1,MDWK6,Week 6 to Week 8 Visit,0,CRF,
ABC,EX,ABC-01-056,EXSEQ,1,MDWK8,Week 8 to Week 12 Visit,0,CRF,
ABC,EX,ABC-01-056,EXSEQ,1,RESUME1,Resume Treatment to Target Plaque 1,N,CRF,
ABC,EX,ABC-01-056,EXSEQ,1,RESUME2,Resume Treatment to Target Plaque 2,N,CRF,
ABC,EX,ABC-01-056,EXSEQ,1,RESUME3,Resumed Any Treatment to Treated Areas,N,CRF,
ABC,EX,ABC-01-113,EXSEQ,1,MDBASEL,Baseline to Week 2 Visit,0,CRF,
ABC,EX,ABC-01-113,EXSEQ,1,MDPVET,Prior Visit to Early Term,0,CRF,
ABC,EX,ABC-01-113,EXSEQ,1,MDWK2,Week 2 to Week 4 Visit,0,CRF,
ABC,EX,ABC-01-113,EXSEQ,1,MDWK4,Week 4 to Week 6 Visit,0,CRF,
ABC,EX,ABC-01-113,EXSEQ,1,MDWK6,Week 6 to Week 8 Visit,0,CRF,
ABC,EX,ABC-01-113,EXSEQ,1,MDWK8,Week 8 to Week 12 Visit,0,CRF,
ABC,EX,ABC-01-113,EXSEQ,1,RESUME1,Resume Treatment to Target Plaque 1,N,CRF,
ABC,EX,ABC-01-113,EXSEQ,1,RESUME2,Resume Treatment to Target Plaque 2,N,CRF,
ABC,EX,ABC-01-113,EXSEQ,1,RESUME3,Resumed Any Treatment to Treated Areas,N,CRF,
ABC,EX,ABC-01-114,EXSEQ,1,MDBASEL,Baseline to Week 2 Visit,0,CRF,
ABC,EX,ABC-01-114,EXSEQ,1,MDPVET,Prior Visit to Early Term,0,CRF,
ABC,EX,ABC-01-114,EXSEQ,1,MDWK2,Week 2 to Week 4 Visit,0,CRF,
ABC,EX,ABC-01-114,EXSEQ,1,MDWK4,Week 4 to Week 6 Visit,0,CRF,
ABC,EX,ABC-01-114,EXSEQ,1,MDWK6,Week 6 to Week 8 Visit,0,CRF,
ABC,EX,ABC-01-114,EXSEQ,1,MDWK8,Week 8 to Week 12 Visit,0,CRF,
ABC,EX,ABC-01-114,EXSEQ,1,RESUME1,Resume Treatment to Target Plaque 1,N,CRF,
ABC,EX,ABC-01-114,EXSEQ,1,RESUME2,Resume Treatment to Target Plaque 2,N,CRF,
ABC,EX,ABC-01-114,EXSEQ,1,RESUME3,Resumed Any Treatment to Treated Areas,N,CRF,
ABC,EX,ABC-02-033,EXSEQ,1,MDBASEL,Baseline to Week 2 Visit,0,CRF,
ABC,EX,ABC-02-033,EXSEQ,1,MDWK2,Week 2 to Week 4 Visit,1,CRF,
ABC,EX,ABC-02-033,EXSEQ,1,MDWK4,Week 4 to Week 6 Visit,0,CRF,
ABC,EX,ABC-02-033,EXSEQ,1,MDWK6,Week 6 to Week 8 Visit,0,CRF,
ABC,EX,ABC-02-033,EXSEQ,1,MDWK8,Week 8 to Week 12 Visit,0,CRF,
ABC,EX,ABC-02-033,EXSEQ,1,RESUME1,Resume Treatment to Target Plaque 1,N,CRF,
ABC,EX,ABC-02-033,EXSEQ,1,RESUME2,Resume Treatment to Target Plaque 2,N,CRF,
ABC,EX,ABC-02-033,EXSEQ,1,RESUME3,Resumed Any Treatment to Treated Areas,N,CRF,
ABC,EX,ABC-02-034,EXSEQ,1,MDBASEL,Baseline to Week 2 Visit,1,CRF,
ABC,EX,ABC-02-034,EXSEQ,1,MDWK2,Week 2 to Week 4 Visit,0,CRF,
ABC,EX,ABC-02-034,EXSEQ,1,MDWK4,Week 4 to Week 6 Visit,0,CRF,
ABC,EX,ABC-02-034,EXSEQ,1,MDWK6,Week 6 to Week 8 Visit,0,CRF,
ABC,EX,ABC-02-034,EXSEQ,1,MDWK8,Week 8 to Week 12 Visit,1,CRF,
ABC,EX,ABC-02-034,EXSEQ,1,RESUME1,Resume Treatment to Target Plaque 1,N,CRF,
ABC,EX,ABC-02-034,EXSEQ,1,RESUME2,Resume Treatment to Target Plaque 2,N,CRF,
ABC,EX,ABC-02-034,EXSEQ,1,RESUME3,Resumed Any Treatment to Treated Areas,N,CRF,
ABC,EX,ABC-02-035,EXSEQ,1,MDBASEL,Baseline to Week 2 Visit,0,CRF,
ABC,EX,ABC-02-035,EXSEQ,1,MDWK2,Week 2 to Week 4 Visit,0,CRF,
ABC,EX,ABC-02-035,EXSEQ,1,MDWK4,Week 4 to Week 6 Visit,0,CRF,
ABC,EX,ABC-02-035,EXSEQ,1,MDWK6,Week 6 to Week 8 Visit,0,CRF,
ABC,EX,ABC-02-035,EXSEQ,1,MDWK8,Week 8 to Week 12 Visit,0,CRF,
ABC,EX,ABC-02-035,EXSEQ,1,RESUME1,Resume Treatment to Target Plaque 1,N,CRF,
ABC,EX,ABC-02-035,EXSEQ,1,RESUME2,Resume Treatment to Target Plaque 2,N,CRF,
ABC,EX,ABC-02-035,EXSEQ,1,RESUME3,Resumed Any Treatment to Treated Areas,N,CRF,
ABC,EX,ABC-02-036,EXSEQ,1,MDBASEL,Baseline to Week 2 Visit,1,CRF,
ABC,EX,ABC-02-036,EXSEQ,1,MDWK2,Week 2 to Week 4 Visit,0,CRF,
ABC,EX,ABC-02-036,EXSEQ,1,MDWK4,Week 4 to Week 6 Visit,0,CRF,
ABC,EX,ABC-02-036,EXSEQ,1,MDWK6,Week 6 to Week 8 Visit,1,CRF,
ABC,EX,ABC-02-036,EXSEQ,1,MDWK8,Week 8 to Week 12 Visit,2,CRF,
ABC,EX,ABC-02-036,EXSEQ,1,RESUME1,Resume Treatment to Target Plaque 1,N,CRF,
ABC,EX,ABC-02-036,EXSEQ,1,RESUME2,Resume Treatment to Target Plaque 2,N,CRF,
ABC,EX,ABC-02-036,EXSEQ,1,RESUME3,Resumed Any Treatment to Treated Areas,N,CRF,
ABC,EX,ABC-02-037,EXSEQ,1,MDBASEL,Baseline to Week 2 Visit,0,CRF,
ABC,EX,ABC-02-037,EXSEQ,1,MDWK2,Week 2 to Week 4 Visit,0,CRF,
ABC,EX,ABC-02-037,EXSEQ,1,MDWK4,Week 4 to Week 6 Visit,0,CRF,
ABC,EX,ABC-02-037,EXSEQ,1,MDWK6,Week 6 to Week 8 Visit,0,CRF,
ABC,EX,ABC-02-037,EXSEQ,1,MDWK8,Week 8 to Week 12 Visit,0,CRF,
ABC,EX,ABC-02-037,EXSEQ,1,RESUME1,Resume Treatment to Target Plaque 1,N,CRF,
ABC,EX,ABC-02-037,EXSEQ,1,RESUME2,Resume Treatment to Target Plaque 2,N,CRF,
ABC,EX,ABC-02-037,EXSEQ,1,RESUME3,Resumed Any Treatment to Treated Areas,N,CRF,
ABC,EX,ABC-02-038,EXSEQ,1,MDBASEL,Baseline to Week 2 Visit,0,CRF,
ABC,EX,ABC-02-038,EXSEQ,1,MDWK2,Week 2 to Week 4 Visit,0,CRF,
ABC,EX,ABC-02-038,EXSEQ,1,MDWK4,Week 4 to Week 6 Visit,0,CRF,
ABC,EX,ABC-02-038,EXSEQ,1,MDWK6,Week 6 to Week 8 Visit,0,CRF,
ABC,EX,ABC-02-038,EXSEQ,1,MDWK8,Week 8 to Week 12 Visit,0,CRF,
ABC,EX,ABC-02-038,EXSEQ,1,RESUME1,Resume Treatment to Target Plaque 1,N,CRF,
ABC,EX,ABC-02-038,EXSEQ,1,RESUME2,Resume Treatment to Target Plaque 2,N,CRF,
ABC,EX,ABC-02-038,EXSEQ,1,RESUME3,Resumed Any Treatment to Treated Areas,N,CRF,
ABC,EX,ABC-02-039,EXSEQ,1,MDBASEL,Baseline to Week 2 Visit,0,CRF,
ABC,EX,ABC-02-039,EXSEQ,1,MDWK2,Week 2 to Week 4 Visit,0,CRF,
ABC,EX,ABC-02-039,EXSEQ,1,MDWK4,Week 4 to Week 6 Visit,0,CRF,
ABC,EX,ABC-02-039,EXSEQ,1,MDWK6,Week 6 to Week 8 Visit,0,CRF,
ABC,EX,ABC-02-039,EXSEQ,1,MDWK8,Week 8 to Week 12 Visit,3,CRF,
ABC,EX,ABC-02-039,EXSEQ,1,RESUME1,Resume Treatment to Target Plaque 1,N,CRF,
ABC,EX,ABC-02-039,EXSEQ,1,RESUME2,Resume Treatment to Target Plaque 2,N,CRF,
ABC,EX,ABC-02-039,EXSEQ,1,RESUME3,Resumed Any Treatment to Treated Areas,N,CRF,
ABC,EX,ABC-02-040,EXSEQ,1,MDBASEL,Baseline to Week 2 Visit,0,CRF,
ABC,EX,ABC-02-040,EXSEQ,1,MDWK2,Week 2 to Week 4 Visit,0,CRF,
ABC,EX,ABC-02-040,EXSEQ,1,MDWK4,Week 4 to Week 6 Visit,0,CRF,
ABC,EX,ABC-02-040,EXSEQ,1,MDWK6,Week 6 to Week 8 Visit,0,CRF,
ABC,EX,ABC-02-040,EXSEQ,1,MDWK8,Week 8 to Week 12 Visit,0,CRF,
ABC,EX,ABC-02-040,EXSEQ,1,RESUME1,Resume Treatment to Target Plaque 1,N,CRF,
ABC,EX,ABC-02-040,EXSEQ,1,RESUME2,Resume Treatment to Target Plaque 2,N,CRF,
ABC,EX,ABC-02-040,EXSEQ,1,RESUME3,Resumed Any Treatment to Treated Areas,N,CRF,
ABC,EX,ABC-02-109,EXSEQ,1,MDBASEL,Baseline to Week 2 Visit,0,CRF,
ABC,EX,ABC-02-109,EXSEQ,1,MDWK2,Week 2 to Week 4 Visit,0,CRF,
ABC,EX,ABC-02-109,EXSEQ,1,MDWK4,Week 4 to Week 6 Visit,0,CRF,
ABC,EX,ABC-02-109,EXSEQ,1,MDWK6,Week 6 to Week 8 Visit,0,CRF,
ABC,EX,ABC-02-109,EXSEQ,1,MDWK8,Week 8 to Week 12 Visit,0,CRF,
ABC,EX,ABC-02-109,EXSEQ,1,RESUME1,Resume Treatment to Target Plaque 1,N,CRF,
ABC,EX,ABC-02-109,EXSEQ,1,RESUME2,Resume Treatment to Target Plaque 2,N,CRF,
ABC,EX,ABC-02-109,EXSEQ,1,RESUME3,Resumed Any Treatment to Treated Areas,N,CRF,
ABC,EX,ABC-02-110,EXSEQ,1,MDBASEL,Baseline to Week 2 Visit,0,CRF,
ABC,EX,ABC-02-110,EXSEQ,1,MDWK2,Week 2 to Week 4 Visit,0,CRF,
ABC,EX,ABC-02-110,EXSEQ,1,MDWK4,Week 4 to Week 6 Visit,0,CRF,
ABC,EX,ABC-02-110,EXSEQ,1,MDWK6,Week 6 to Week 8 Visit,0,CRF,
ABC,EX,ABC-02-110,EXSEQ,1,MDWK8,Week 8 to Week 12 Visit,0,CRF,
ABC,EX,ABC-02-110,EXSEQ,1,RESUME1,Resume Treatment to Target Plaque 1,N,CRF,
ABC,EX,ABC-02-110,EXSEQ,1,RESUME2,Resume Treatment to Target Plaque 2,N,CRF,
ABC,EX,ABC-02-110,EXSEQ,1,RESUME3,Resumed Any Treatment to Treated Areas,N,CRF,
ABC,EX,ABC-02-111,EXSEQ,1,MDBASEL,Baseline to Week 2 Visit,0,CRF,
ABC,EX,ABC-02-111,EXSEQ,1,MDWK2,Week 2 to Week 4 Visit,0,CRF,
ABC,EX,ABC-02-111,EXSEQ,1,MDWK4,Week 4 to Week 6 Visit,0,CRF,
ABC,EX,ABC-02-111,EXSEQ,1,MDWK6,Week 6 to Week 8 Visit,1,CRF,
ABC,EX,ABC-02-111,EXSEQ,1,MDWK8,Week 8 to Week 12 Visit,2,CRF,
ABC,EX,ABC-02-111,EXSEQ,1,RESUME1,Resume Treatment to Target Plaque 1,N,CRF,
ABC,EX,ABC-02-111,EXSEQ,1,RESUME2,Resume Treatment to Target Plaque 2,N,CRF,
ABC,EX,ABC-02-111,EXSEQ,1,RESUME3,Resumed Any Treatment to Treated Areas,N,CRF,
ABC,EX,ABC-02-112,EXSEQ,1,MDBASEL,Baseline to Week 2 Visit,0,CRF,
ABC,EX,ABC-02-112,EXSEQ,1,MDWK2,Week 2 to Week 4 Visit,0,CRF,
ABC,EX,ABC-02-112,EXSEQ,1,MDWK4,Week 4 to Week 6 Visit,0,CRF,
ABC,EX,ABC-02-112,EXSEQ,1,MDWK6,Week 6 to Week 8 Visit,0,CRF,
ABC,EX,ABC-02-112,EXSEQ,1,MDWK8,Week 8 to Week 12 Visit,0,CRF,
ABC,EX,ABC-02-112,EXSEQ,1,RESUME1,Resume Treatment to Target Plaque 1,N,CRF,
ABC,EX,ABC-02-112,EXSEQ,1,RESUME2,Resume Treatment to Target Plaque 2,N,CRF,
ABC,EX,ABC-02-112,EXSEQ,1,RESUME3,Resumed Any Treatment to Treated Areas,N,CRF,
ABC,EX,ABC-03-001,EXSEQ,1,MDBASEL,Baseline to Week 2 Visit,0,CRF,
ABC,EX,ABC-03-001,EXSEQ,1,MDWK2,Week 2 to Week 4 Visit,0,CRF,
ABC,EX,ABC-03-001,EXSEQ,1,MDWK4,Week 4 to Week 6 Visit,0,CRF,
ABC,EX,ABC-03-001,EXSEQ,1,MDWK6,Week 6 to Week 8 Visit,0,CRF,
ABC,EX,ABC-03-001,EXSEQ,1,MDWK8,Week 8 to Week 12 Visit,0,CRF,
ABC,EX,ABC-03-001,EXSEQ,1,RESUME1,Resume Treatment to Target Plaque 1,N,CRF,
ABC,EX,ABC-03-001,EXSEQ,1,RESUME2,Resume Treatment to Target Plaque 2,N,CRF,
ABC,EX,ABC-03-001,EXSEQ,1,RESUME3,Resumed Any Treatment to Treated Areas,N,CRF,
ABC,EX,ABC-03-002,EXSEQ,1,MDBASEL,Baseline to Week 2 Visit,0,CRF,
ABC,EX,ABC-03-002,EXSEQ,1,MDWK2,Week 2 to Week 4 Visit,0,CRF,
ABC,EX,ABC-03-002,EXSEQ,1,MDWK4,Week 4 to Week 6 Visit,0,CRF,
ABC,EX,ABC-03-002,EXSEQ,1,MDWK6,Week 6 to Week 8 Visit,0,CRF,
ABC,EX,ABC-03-002,EXSEQ,1,MDWK8,Week 8 to Week 12 Visit,2,CRF,
ABC,EX,ABC-03-002,EXSEQ,1,RESUME1,Resume Treatment to Target Plaque 1,N,CRF,
ABC,EX,ABC-03-002,EXSEQ,1,RESUME2,Resume Treatment to Target Plaque 2,N,CRF,
ABC,EX,ABC-03-002,EXSEQ,1,RESUME3,Resumed Any Treatment to Treated Areas,N,CRF,
ABC,EX,ABC-03-003,EXSEQ,1,MDBASEL,Baseline to Week 2 Visit,0,CRF,
ABC,EX,ABC-03-003,EXSEQ,1,MDWK2,Week 2 to Week 4 Visit,0,CRF,
ABC,EX,ABC-03-003,EXSEQ,1,MDWK4,Week 4 to Week 6 Visit,0,CRF,
ABC,EX,ABC-03-003,EXSEQ,1,MDWK6,Week 6 to Week 8 Visit,0,CRF,
ABC,EX,ABC-03-003,EXSEQ,1,MDWK8,Week 8 to Week 12 Visit,0,CRF,
ABC,EX,ABC-03-003,EXSEQ,1,RESUME1,Resume Treatment to Target Plaque 1,N,CRF,
ABC,EX,ABC-03-003,EXSEQ,1,RESUME2,Resume Treatment to Target Plaque 2,N,CRF,
ABC,EX,ABC-03-003,EXSEQ,1,RESUME3,Resumed Any Treatment to Treated Areas,N,CRF,
ABC,EX,ABC-03-004,EXSEQ,1,MDBASEL,Baseline to Week 2 Visit,0,CRF,
ABC,EX,ABC-03-004,EXSEQ,1,MDWK2,Week 2 to Week 4 Visit,0,CRF,
ABC,EX,ABC-03-004,EXSEQ,1,MDWK4,Week 4 to Week 6 Visit,0,CRF,
ABC,EX,ABC-03-004,EXSEQ,1,MDWK6,Week 6 to Week 8 Visit,0,CRF,
ABC,EX,ABC-03-004,EXSEQ,1,MDWK8,Week 8 to Week 12 Visit,0,CRF,
ABC,EX,ABC-03-004,EXSEQ,1,RESUME1,Resume Treatment to Target Plaque 1,N,CRF,
ABC,EX,ABC-03-004,EXSEQ,1,RESUME2,Resume Treatment to Target Plaque 2,N,CRF,
ABC,EX,ABC-03-004,EXSEQ,1,RESUME3,Resumed Any Treatment to Treated Areas,N,CRF,
ABC,EX,ABC-03-006,EXSEQ,1,MDBASEL,Baseline to Week 2 Visit,0,CRF,
ABC,EX,ABC-03-006,EXSEQ,1,MDPVET,Prior Visit to Early Term,0,CRF,
ABC,EX,ABC-03-006,EXSEQ,1,MDWK2,Week 2 to Week 4 Visit,0,CRF,
ABC,EX,ABC-03-006,EXSEQ,1,MDWK4,Week 4 to Week 6 Visit,0,CRF,
ABC,EX,ABC-03-006,EXSEQ,1,MDWK6,Week 6 to Week 8 Visit,0,CRF,
ABC,EX,ABC-03-006,EXSEQ,1,MDWK8,Week 8 to Week 12 Visit,0,CRF,
ABC,EX,ABC-03-006,EXSEQ,1,RESUME1,Resume Treatment to Target Plaque 1,N,CRF,
ABC,EX,ABC-03-006,EXSEQ,1,RESUME2,Resume Treatment to Target Plaque 2,N,CRF,
ABC,EX,ABC-03-006,EXSEQ,1,RESUME3,Resumed Any Treatment to Treated Areas,N,CRF,
ABC,EX,ABC-03-007,EXSEQ,1,MDBASEL,Baseline to Week 2 Visit,0,CRF,
ABC,EX,ABC-03-007,EXSEQ,1,MDWK2,Week 2 to Week 4 Visit,1,CRF,
ABC,EX,ABC-03-007,EXSEQ,1,MDWK4,Week 4 to Week 6 Visit,0,CRF,
ABC,EX,ABC-03-007,EXSEQ,1,MDWK6,Week 6 to Week 8 Visit,1,CRF,
ABC,EX,ABC-03-007,EXSEQ,1,MDWK8,Week 8 to Week 12 Visit,1,CRF,
ABC,EX,ABC-03-007,EXSEQ,1,RESUME1,Resume Treatment to Target Plaque 1,N,CRF,
ABC,EX,ABC-03-007,EXSEQ,1,RESUME2,Resume Treatment to Target Plaque 2,N,CRF,
ABC,EX,ABC-03-007,EXSEQ,1,RESUME3,Resumed Any Treatment to Treated Areas,N,CRF,
ABC,EX,ABC-03-008,EXSEQ,1,MDBASEL,Baseline to Week 2 Visit,6,CRF,
ABC,EX,ABC-03-008,EXSEQ,1,RESUME1,Resume Treatment to Target Plaque 1,Y,CRF,
ABC,EX,ABC-03-008,EXSEQ,1,RESUME2,Resume Treatment to Target Plaque 2,Y,CRF,
ABC,EX,ABC-03-008,EXSEQ,1,RESUME3,Resumed Any Treatment to Treated Areas,Y,CRF,
ABC,EX,ABC-03-089,EXSEQ,1,MDBASEL,Baseline to Week 2 Visit,0,CRF,
ABC,EX,ABC-03-089,EXSEQ,1,MDWK2,Week 2 to Week 4 Visit,0,CRF,
ABC,EX,ABC-03-089,EXSEQ,1,MDWK4,Week 4 to Week 6 Visit,0,CRF,
ABC,EX,ABC-03-089,EXSEQ,1,MDWK6,Week 6 to Week 8 Visit,0,CRF,
ABC,EX,ABC-03-089,EXSEQ,1,MDWK8,Week 8 to Week 12 Visit,0,CRF,
ABC,EX,ABC-03-089,EXSEQ,1,RESUME1,Resume Treatment to Target Plaque 1,N,CRF,
ABC,EX,ABC-03-089,EXSEQ,1,RESUME2,Resume Treatment to Target Plaque 2,N,CRF,
ABC,EX,ABC-03-089,EXSEQ,1,RESUME3,Resumed Any Treatment to Treated Areas,N,CRF,
ABC,EX,ABC-03-090,EXSEQ,1,MDBASEL,Baseline to Week 2 Visit,0,CRF,
ABC,EX,ABC-03-090,EXSEQ,1,MDWK2,Week 2 to Week 4 Visit,0,CRF,
ABC,EX,ABC-03-090,EXSEQ,1,MDWK4,Week 4 to Week 6 Visit,0,CRF,
ABC,EX,ABC-03-090,EXSEQ,1,MDWK6,Week 6 to Week 8 Visit,0,CRF,
ABC,EX,ABC-03-090,EXSEQ,1,MDWK8,Week 8 to Week 12 Visit,0,CRF,
ABC,EX,ABC-03-090,EXSEQ,1,RESUME1,Resume Treatment to Target Plaque 1,N,CRF,
ABC,EX,ABC-03-090,EXSEQ,1,RESUME2,Resume Treatment to Target Plaque 2,N,CRF,
ABC,EX,ABC-03-090,EXSEQ,1,RESUME3,Resumed Any Treatment to Treated Areas,N,CRF,
ABC,EX,ABC-03-091,EXSEQ,1,MDBASEL,Baseline to Week 2 Visit,0,CRF,
ABC,EX,ABC-03-091,EXSEQ,1,MDWK2,Week 2 to Week 4 Visit,0,CRF,
ABC,EX,ABC-03-091,EXSEQ,1,MDWK4,Week 4 to Week 6 Visit,0,CRF,
ABC,EX,ABC-03-091,EXSEQ,1,MDWK6,Week 6 to Week 8 Visit,0,CRF,
ABC,EX,ABC-03-091,EXSEQ,1,MDWK8,Week 8 to Week 12 Visit,0,CRF,
ABC,EX,ABC-03-091,EXSEQ,1,RESUME1,Resume Treatment to Target Plaque 1,N,CRF,
ABC,EX,ABC-03-091,EXSEQ,1,RESUME2,Resume Treatment to Target Plaque 2,N,CRF,
ABC,EX,ABC-03-091,EXSEQ,1,RESUME3,Resumed Any Treatment to Treated Areas,N,CRF,
ABC,EX,ABC-04-073,EXSEQ,1,MDBASEL,Baseline to Week 2 Visit,0,CRF,
ABC,EX,ABC-04-073,EXSEQ,1,MDPVET,Prior Visit to Early Term,0,CRF,
ABC,EX,ABC-04-073,EXSEQ,1,MDWK2,Week 2 to Week 4 Visit,0,CRF,
ABC,EX,ABC-04-073,EXSEQ,1,MDWK4,Week 4 to Week 6 Visit,0,CRF,
ABC,EX,ABC-04-073,EXSEQ,1,MDWK6,Week 6 to Week 8 Visit,0,CRF,
ABC,EX,ABC-04-073,EXSEQ,1,MDWK8,Week 8 to Week 12 Visit,0,CRF,
ABC,EX,ABC-04-073,EXSEQ,1,RESUME1,Resume Treatment to Target Plaque 1,N,CRF,
ABC,EX,ABC-04-073,EXSEQ,1,RESUME2,Resume Treatment to Target Plaque 2,N,CRF,
ABC,EX,ABC-04-073,EXSEQ,1,RESUME3,Resumed Any Treatment to Treated Areas,N,CRF,
ABC,EX,ABC-04-074,EXSEQ,1,MDPVET,Prior Visit to Early Term,11,CRF,
ABC,EX,ABC-04-075,EXSEQ,1,MDBASEL,Baseline to Week 2 Visit,0,CRF,
ABC,EX,ABC-04-075,EXSEQ,1,MDWK2,Week 2 to Week 4 Visit,0,CRF,
ABC,EX,ABC-04-075,EXSEQ,1,MDWK4,Week 4 to Week 6 Visit,0,CRF,
ABC,EX,ABC-04-075,EXSEQ,1,MDWK6,Week 6 to Week 8 Visit,0,CRF,
ABC,EX,ABC-04-075,EXSEQ,1,MDWK8,Week 8 to Week 12 Visit,0,CRF,
ABC,EX,ABC-04-075,EXSEQ,1,RESUME1,Resume Treatment to Target Plaque 1,N,CRF,
ABC,EX,ABC-04-075,EXSEQ,1,RESUME2,Resume Treatment to Target Plaque 2,N,CRF,
ABC,EX,ABC-04-075,EXSEQ,1,RESUME3,Resumed Any Treatment to Treated Areas,N,CRF,
ABC,EX,ABC-04-076,EXSEQ,1,MDBASEL,Baseline to Week 2 Visit,0,CRF,
ABC,EX,ABC-04-076,EXSEQ,1,MDWK2,Week 2 to Week 4 Visit,0,CRF,
ABC,EX,ABC-04-076,EXSEQ,1,MDWK4,Week 4 to Week 6 Visit,0,CRF,
ABC,EX,ABC-04-076,EXSEQ,1,MDWK6,Week 6 to Week 8 Visit,0,CRF,
ABC,EX,ABC-04-076,EXSEQ,1,MDWK8,Week 8 to Week 12 Visit,0,CRF,
ABC,EX,ABC-04-076,EXSEQ,1,RESUME1,Resume Treatment to Target Plaque 1,N,CRF,
ABC,EX,ABC-04-076,EXSEQ,1,RESUME2,Resume Treatment to Target Plaque 2,N,CRF,
ABC,EX,ABC-04-076,EXSEQ,1,RESUME3,Resumed Any Treatment to Treated Areas,N,CRF,
ABC,EX,ABC-04-077,EXSEQ,1,MDBASEL,Baseline to Week 2 Visit,0,CRF,
ABC,EX,ABC-04-077,EXSEQ,1,MDWK2,Week 2 to Week 4 Visit,0,CRF,
ABC,EX,ABC-04-077,EXSEQ,1,MDWK4,Week 4 to Week 6 Visit,0,CRF,
ABC,EX,ABC-04-077,EXSEQ,1,MDWK6,Week 6 to Week 8 Visit,0,CRF,
ABC,EX,ABC-04-077,EXSEQ,1,MDWK8,Week 8 to Week 12 Visit,0,CRF,
ABC,EX,ABC-04-077,EXSEQ,1,RESUME1,Resume Treatment to Target Plaque 1,N,CRF,
ABC,EX,ABC-04-077,EXSEQ,1,RESUME2,Resume Treatment to Target Plaque 2,N,CRF,
ABC,EX,ABC-04-077,EXSEQ,1,RESUME3,Resumed Any Treatment to Treated Areas,N,CRF,
ABC,EX,ABC-04-078,EXSEQ,1,MDBASEL,Baseline to Week 2 Visit,0,CRF,
ABC,EX,ABC-04-078,EXSEQ,1,MDWK2,Week 2 to Week 4 Visit,0,CRF,
ABC,EX,ABC-04-078,EXSEQ,1,MDWK4,Week 4 to Week 6 Visit,1,CRF,
ABC,EX,ABC-04-078,EXSEQ,1,MDWK6,Week 6 to Week 8 Visit,0,CRF,
ABC,EX,ABC-04-078,EXSEQ,1,MDWK8,Week 8 to Week 12 Visit,0,CRF,
ABC,EX,ABC-04-078,EXSEQ,1,RESUME1,Resume Treatment to Target Plaque 1,N,CRF,
ABC,EX,ABC-04-078,EXSEQ,1,RESUME2,Resume Treatment to Target Plaque 2,N,CRF,
ABC,EX,ABC-04-078,EXSEQ,1,RESUME3,Resumed Any Treatment to Treated Areas,N,CRF,
ABC,EX,ABC-04-079,EXSEQ,1,MDBASEL,Baseline to Week 2 Visit,0,CRF,
ABC,EX,ABC-04-079,EXSEQ,1,MDWK2,Week 2 to Week 4 Visit,0,CRF,
ABC,EX,ABC-04-079,EXSEQ,1,MDWK4,Week 4 to Week 6 Visit,0,CRF,
ABC,EX,ABC-04-079,EXSEQ,1,MDWK6,Week 6 to Week 8 Visit,0,CRF,
ABC,EX,ABC-04-079,EXSEQ,1,MDWK8,Week 8 to Week 12 Visit,0,CRF,
ABC,EX,ABC-04-079,EXSEQ,1,RESUME1,Resume Treatment to Target Plaque 1,N,CRF,
ABC,EX,ABC-04-079,EXSEQ,1,RESUME2,Resume Treatment to Target Plaque 2,N,CRF,
ABC,EX,ABC-04-079,EXSEQ,1,RESUME3,Resumed Any Treatment to Treated Areas,N,CRF,
ABC,EX,ABC-04-080,EXSEQ,1,MDBASEL,Baseline to Week 2 Visit,0,CRF,
ABC,EX,ABC-04-080,EXSEQ,1,MDWK2,Week 2 to Week 4 Visit,0,CRF,
ABC,EX,ABC-04-080,EXSEQ,1,MDWK4,Week 4 to Week 6 Visit,0,CRF,
ABC,EX,ABC-04-080,EXSEQ,1,MDWK6,Week 6 to Week 8 Visit,0,CRF,
ABC,EX,ABC-04-080,EXSEQ,1,MDWK8,Week 8 to Week 12 Visit,0,CRF,
ABC,EX,ABC-04-080,EXSEQ,1,RESUME1,Resume Treatment to Target Plaque 1,N,CRF,
ABC,EX,ABC-04-080,EXSEQ,1,RESUME2,Resume Treatment to Target Plaque 2,N,CRF,
ABC,EX,ABC-04-080,EXSEQ,1,RESUME3,Resumed Any Treatment to Treated Areas,N,CRF,
ABC,EX,ABC-04-125,EXSEQ,1,MDBASEL,Baseline to Week 2 Visit,0,CRF,
ABC,EX,ABC-04-125,EXSEQ,1,MDWK2,Week 2 to Week 4 Visit,0,CRF,
ABC,EX,ABC-04-125,EXSEQ,1,MDWK4,Week 4 to Week 6 Visit,0,CRF,
ABC,EX,ABC-04-125,EXSEQ,1,MDWK6,Week 6 to Week 8 Visit,0,CRF,
ABC,EX,ABC-04-125,EXSEQ,1,MDWK8,Week 8 to Week 12 Visit,0,CRF,
ABC,EX,ABC-04-125,EXSEQ,1,RESUME1,Resume Treatment to Target Plaque 1,N,CRF,
ABC,EX,ABC-04-125,EXSEQ,1,RESUME2,Resume Treatment to Target Plaque 2,N,CRF,
ABC,EX,ABC-04-125,EXSEQ,1,RESUME3,Resumed Any Treatment to Treated Areas,N,CRF,
ABC,EX,ABC-04-126,EXSEQ,1,MDBASEL,Baseline to Week 2 Visit,0,CRF,
ABC,EX,ABC-04-126,EXSEQ,1,MDWK2,Week 2 to Week 4 Visit,0,CRF,
ABC,EX,ABC-04-126,EXSEQ,1,MDWK4,Week 4 to Week 6 Visit,0,CRF,
ABC,EX,ABC-04-126,EXSEQ,1,MDWK6,Week 6 to Week 8 Visit,0,CRF,
ABC,EX,ABC-04-126,EXSEQ,1,MDWK8,Week 8 to Week 12 Visit,0,CRF,
ABC,EX,ABC-04-126,EXSEQ,1,RESUME1,Resume Treatment to Target Plaque 1,N,CRF,
ABC,EX,ABC-04-126,EXSEQ,1,RESUME2,Resume Treatment to Target Plaque 2,N,CRF,
ABC,EX,ABC-04-126,EXSEQ,1,RESUME3,Resumed Any Treatment to Treated Areas,N,CRF,
ABC,EX,ABC-04-127,EXSEQ,1,MDBASEL,Baseline to Week 2 Visit,0,CRF,
ABC,EX,ABC-04-127,EXSEQ,1,MDWK2,Week 2 to Week 4 Visit,0,CRF,
ABC,EX,ABC-04-127,EXSEQ,1,MDWK4,Week 4 to Week 6 Visit,0,CRF,
ABC,EX,ABC-04-127,EXSEQ,1,MDWK6,Week 6 to Week 8 Visit,0,CRF,
ABC,EX,ABC-04-127,EXSEQ,1,MDWK8,Week 8 to Week 12 Visit,0,CRF,
ABC,EX,ABC-04-127,EXSEQ,1,RESUME1,Resume Treatment to Target Plaque 1,N,CRF,
ABC,EX,ABC-04-127,EXSEQ,1,RESUME2,Resume Treatment to Target Plaque 2,N,CRF,
ABC,EX,ABC-04-127,EXSEQ,1,RESUME3,Resumed Any Treatment to Treated Areas,N,CRF,
ABC,EX,ABC-04-129,EXSEQ,1,MDBASEL,Baseline to Week 2 Visit,0,CRF,
ABC,EX,ABC-04-129,EXSEQ,1,MDWK2,Week 2 to Week 4 Visit,0,CRF,
ABC,EX,ABC-04-129,EXSEQ,1,MDWK4,Week 4 to Week 6 Visit,0,CRF,
ABC,EX,ABC-04-129,EXSEQ,1,MDWK6,Week 6 to Week 8 Visit,0,CRF,
ABC,EX,ABC-04-129,EXSEQ,1,MDWK8,Week 8 to Week 12 Visit,0,CRF,
ABC,EX,ABC-04-129,EXSEQ,1,RESUME1,Resume Treatment to Target Plaque 1,N,CRF,
ABC,EX,ABC-04-129,EXSEQ,1,RESUME2,Resume Treatment to Target Plaque 2,N,CRF,
ABC,EX,ABC-04-129,EXSEQ,1,RESUME3,Resumed Any Treatment to Treated Areas,N,CRF,
ABC,EX,ABC-04-130,EXSEQ,1,MDBASEL,Baseline to Week 2 Visit,0,CRF,
ABC,EX,ABC-04-130,EXSEQ,1,MDWK2,Week 2 to Week 4 Visit,0,CRF,
ABC,EX,ABC-04-130,EXSEQ,1,MDWK4,Week 4 to Week 6 Visit,0,CRF,
ABC,EX,ABC-04-130,EXSEQ,1,MDWK6,Week 6 to Week 8 Visit,0,CRF,
ABC,EX,ABC-04-130,EXSEQ,1,MDWK8,Week 8 to Week 12 Visit,0,CRF,
ABC,EX,ABC-04-130,EXSEQ,1,RESUME1,Resume Treatment to Target Plaque 1,N,CRF,
ABC,EX,ABC-04-130,EXSEQ,1,RESUME2,Resume Treatment to Target Plaque 2,N,CRF,
ABC,EX,ABC-04-130,EXSEQ,1,RESUME3,Resumed Any Treatment to Treated Areas,N,CRF,
ABC,EX,ABC-04-131,EXSEQ,1,MDBASEL,Baseline to Week 2 Visit,0,CRF,
ABC,EX,ABC-04-131,EXSEQ,1,MDWK2,Week 2 to Week 4 Visit,0,CRF,
ABC,EX,ABC-04-131,EXSEQ,1,MDWK4,Week 4 to Week 6 Visit,0,CRF,
ABC,EX,ABC-04-131,EXSEQ,1,MDWK6,Week 6 to Week 8 Visit,0,CRF,
ABC,EX,ABC-04-131,EXSEQ,1,MDWK8,Week 8 to Week 12 Visit,0,CRF,
ABC,EX,ABC-04-131,EXSEQ,1,RESUME1,Resume Treatment to Target Plaque 1,N,CRF,
ABC,EX,ABC-04-131,EXSEQ,1,RESUME2,Resume Treatment to Target Plaque 2,N,CRF,
ABC,EX,ABC-04-131,EXSEQ,1,RESUME3,Resumed Any Treatment to Treated Areas,N,CRF,
ABC,EX,ABC-06-065,EXSEQ,1,MDBASEL,Baseline to Week 2 Visit,0,CRF,
ABC,EX,ABC-06-065,EXSEQ,1,MDWK2,Week 2 to Week 4 Visit,0,CRF,
ABC,EX,ABC-06-065,EXSEQ,1,MDWK4,Week 4 to Week 6 Visit,0,CRF,
ABC,EX,ABC-06-065,EXSEQ,1,MDWK6,Week 6 to Week 8 Visit,1,CRF,
ABC,EX,ABC-06-065,EXSEQ,1,MDWK8,Week 8 to Week 12 Visit,0,CRF,
ABC,EX,ABC-06-065,EXSEQ,1,RESUME1,Resume Treatment to Target Plaque 1,N,CRF,
ABC,EX,ABC-06-065,EXSEQ,1,RESUME2,Resume Treatment to Target Plaque 2,N,CRF,
ABC,EX,ABC-06-065,EXSEQ,1,RESUME3,Resumed Any Treatment to Treated Areas,N,CRF,
ABC,EX,ABC-06-066,EXSEQ,1,MDBASEL,Baseline to Week 2 Visit,0,CRF,
ABC,EX,ABC-06-066,EXSEQ,1,MDWK2,Week 2 to Week 4 Visit,0,CRF,
ABC,EX,ABC-06-066,EXSEQ,1,MDWK4,Week 4 to Week 6 Visit,0,CRF,
ABC,EX,ABC-06-066,EXSEQ,1,MDWK6,Week 6 to Week 8 Visit,0,CRF,
ABC,EX,ABC-06-066,EXSEQ,1,MDWK8,Week 8 to Week 12 Visit,0,CRF,
ABC,EX,ABC-06-066,EXSEQ,1,RESUME1,Resume Treatment to Target Plaque 1,N,CRF,
ABC,EX,ABC-06-066,EXSEQ,1,RESUME2,Resume Treatment to Target Plaque 2,N,CRF,
ABC,EX,ABC-06-066,EXSEQ,1,RESUME3,Resumed Any Treatment to Treated Areas,N,CRF,
ABC,EX,ABC-06-067,EXSEQ,1,MDBASEL,Baseline to Week 2 Visit,0,CRF,
ABC,EX,ABC-06-067,EXSEQ,1,MDWK2,Week 2 to Week 4 Visit,0,CRF,
ABC,EX,ABC-06-067,EXSEQ,1,MDWK4,Week 4 to Week 6 Visit,0,CRF,
ABC,EX,ABC-06-067,EXSEQ,1,MDWK6,Week 6 to Week 8 Visit,0,CRF,
ABC,EX,ABC-06-067,EXSEQ,1,MDWK8,Week 8 to Week 12 Visit,0,CRF,
ABC,EX,ABC-06-067,EXSEQ,1,RESUME1,Resume Treatment to Target Plaque 1,N,CRF,
ABC,EX,ABC-06-067,EXSEQ,1,RESUME2,Resume Treatment to Target Plaque 2,N,CRF,
ABC,EX,ABC-06-067,EXSEQ,1,RESUME3,Resumed Any Treatment to Treated Areas,N,CRF,
ABC,EX,ABC-06-068,EXSEQ,1,MDBASEL,Baseline to Week 2 Visit,0,CRF,
ABC,EX,ABC-06-068,EXSEQ,1,MDWK2,Week 2 to Week 4 Visit,0,CRF,
ABC,EX,ABC-06-068,EXSEQ,1,MDWK4,Week 4 to Week 6 Visit,0,CRF,
ABC,EX,ABC-06-068,EXSEQ,1,MDWK6,Week 6 to Week 8 Visit,0,CRF,
ABC,EX,ABC-06-068,EXSEQ,1,MDWK8,Week 8 to Week 12 Visit,0,CRF,
ABC,EX,ABC-06-068,EXSEQ,1,RESUME1,Resume Treatment to Target Plaque 1,N,CRF,
ABC,EX,ABC-06-068,EXSEQ,1,RESUME2,Resume Treatment to Target Plaque 2,N,CRF,
ABC,EX,ABC-06-068,EXSEQ,1,RESUME3,Resumed Any Treatment to Treated Areas,Y,CRF,
ABC,EX,ABC-06-069,EXSEQ,1,MDBASEL,Baseline to Week 2 Visit,0,CRF,
ABC,EX,ABC-06-069,EXSEQ,1,MDPVET,Prior Visit to Early Term,0,CRF,
ABC,EX,ABC-06-069,EXSEQ,1,MDWK2,Week 2 to Week 4 Visit,0,CRF,
ABC,EX,ABC-06-070,EXSEQ,1,MDBASEL,Baseline to Week 2 Visit,0,CRF,
ABC,EX,ABC-06-070,EXSEQ,1,MDWK2,Week 2 to Week 4 Visit,0,CRF,
ABC,EX,ABC-06-070,EXSEQ,1,MDWK4,Week 4 to Week 6 Visit,0,CRF,
ABC,EX,ABC-06-070,EXSEQ,1,MDWK6,Week 6 to Week 8 Visit,0,CRF,
ABC,EX,ABC-06-070,EXSEQ,1,MDWK8,Week 8 to Week 12 Visit,1,CRF,
ABC,EX,ABC-06-070,EXSEQ,1,RESUME1,Resume Treatment to Target Plaque 1,N,CRF,
ABC,EX,ABC-06-070,EXSEQ,1,RESUME2,Resume Treatment to Target Plaque 2,N,CRF,
ABC,EX,ABC-06-070,EXSEQ,1,RESUME3,Resumed Any Treatment to Treated Areas,N,CRF,
ABC,EX,ABC-06-071,EXSEQ,1,MDBASEL,Baseline to Week 2 Visit,0,CRF,
ABC,EX,ABC-06-071,EXSEQ,1,MDWK2,Week 2 to Week 4 Visit,0,CRF,
ABC,EX,ABC-06-071,EXSEQ,1,MDWK4,Week 4 to Week 6 Visit,0,CRF,
ABC,EX,ABC-06-071,EXSEQ,1,MDWK6,Week 6 to Week 8 Visit,0,CRF,
ABC,EX,ABC-06-071,EXSEQ,1,MDWK8,Week 8 to Week 12 Visit,0,CRF,
ABC,EX,ABC-06-071,EXSEQ,1,RESUME1,Resume Treatment to Target Plaque 1,N,CRF,
ABC,EX,ABC-06-071,EXSEQ,1,RESUME2,Resume Treatment to Target Plaque 2,N,CRF,
ABC,EX,ABC-06-071,EXSEQ,1,RESUME3,Resumed Any Treatment to Treated Areas,N,CRF,
ABC,EX,ABC-06-072,EXSEQ,1,MDBASEL,Baseline to Week 2 Visit,0,CRF,
ABC,EX,ABC-06-072,EXSEQ,1,MDWK2,Week 2 to Week 4 Visit,0,CRF,
ABC,EX,ABC-06-072,EXSEQ,1,MDWK4,Week 4 to Week 6 Visit,0,CRF,
ABC,EX,ABC-06-072,EXSEQ,1,MDWK6,Week 6 to Week 8 Visit,0,CRF,
ABC,EX,ABC-06-072,EXSEQ,1,MDWK8,Week 8 to Week 12 Visit,0,CRF,
ABC,EX,ABC-06-072,EXSEQ,1,RESUME1,Resume Treatment to Target Plaque 1,N,CRF,
ABC,EX,ABC-06-072,EXSEQ,1,RESUME2,Resume Treatment to Target Plaque 2,N,CRF,
ABC,EX,ABC-06-072,EXSEQ,1,RESUME3,Resumed Any Treatment to Treated Areas,Y,CRF,
ABC,EX,ABC-06-161,EXSEQ,1,MDBASEL,Baseline to Week 2 Visit,0,CRF,
ABC,EX,ABC-06-162,EXSEQ,1,MDBASEL,Baseline to Week 2 Visit,0,CRF,
ABC,EX,ABC-06-162,EXSEQ,1,MDWK2,Week 2 to Week 4 Visit,0,CRF,
ABC,EX,ABC-06-162,EXSEQ,1,MDWK4,Week 4 to Week 6 Visit,0,CRF,
ABC,EX,ABC-06-162,EXSEQ,1,MDWK6,Week 6 to Week 8 Visit,0,CRF,
ABC,EX,ABC-06-162,EXSEQ,1,MDWK8,Week 8 to Week 12 Visit,0,CRF,
ABC,EX,ABC-06-162,EXSEQ,1,RESUME1,Resume Treatment to Target Plaque 1,N,CRF,
ABC,EX,ABC-06-162,EXSEQ,1,RESUME2,Resume Treatment to Target Plaque 2,N,CRF,
ABC,EX,ABC-06-162,EXSEQ,1,RESUME3,Resumed Any Treatment to Treated Areas,Y,CRF,
ABC,EX,ABC-06-163,EXSEQ,1,MDBASEL,Baseline to Week 2 Visit,0,CRF,
ABC,EX,ABC-06-163,EXSEQ,1,MDWK2,Week 2 to Week 4 Visit,0,CRF,
ABC,EX,ABC-06-163,EXSEQ,1,MDWK4,Week 4 to Week 6 Visit,0,CRF,
ABC,EX,ABC-06-163,EXSEQ,1,MDWK6,Week 6 to Week 8 Visit,0,CRF,
ABC,EX,ABC-06-163,EXSEQ,1,MDWK8,Week 8 to Week 12 Visit,0,CRF,
ABC,EX,ABC-06-163,EXSEQ,1,RESUME1,Resume Treatment to Target Plaque 1,N,CRF,
ABC,EX,ABC-06-163,EXSEQ,1,RESUME2,Resume Treatment to Target Plaque 2,N,CRF,
ABC,EX,ABC-06-163,EXSEQ,1,RESUME3,Resumed Any Treatment to Treated Areas,Y,CRF,
ABC,EX,ABC-07-009,EXSEQ,1,MDBASEL,Baseline to Week 2 Visit,0,CRF,
ABC,EX,ABC-07-009,EXSEQ,1,MDWK2,Week 2 to Week 4 Visit,0,CRF,
ABC,EX,ABC-07-009,EXSEQ,1,MDWK4,Week 4 to Week 6 Visit,0,CRF,
ABC,EX,ABC-07-009,EXSEQ,1,MDWK6,Week 6 to Week 8 Visit,0,CRF,
ABC,EX,ABC-07-009,EXSEQ,1,MDWK8,Week 8 to Week 12 Visit,0,CRF,
ABC,EX,ABC-07-009,EXSEQ,1,RESUME1,Resume Treatment to Target Plaque 1,N,CRF,
ABC,EX,ABC-07-009,EXSEQ,1,RESUME2,Resume Treatment to Target Plaque 2,N,CRF,
ABC,EX,ABC-07-009,EXSEQ,1,RESUME3,Resumed Any Treatment to Treated Areas,N,CRF,
ABC,EX,ABC-07-010,EXSEQ,1,MDBASEL,Baseline to Week 2 Visit,0,CRF,
ABC,EX,ABC-07-010,EXSEQ,1,MDWK2,Week 2 to Week 4 Visit,0,CRF,
ABC,EX,ABC-07-010,EXSEQ,1,MDWK4,Week 4 to Week 6 Visit,0,CRF,
ABC,EX,ABC-07-010,EXSEQ,1,MDWK6,Week 6 to Week 8 Visit,0,CRF,
ABC,EX,ABC-07-010,EXSEQ,1,MDWK8,Week 8 to Week 12 Visit,0,CRF,
ABC,EX,ABC-07-010,EXSEQ,1,RESUME1,Resume Treatment to Target Plaque 1,N,CRF,
ABC,EX,ABC-07-010,EXSEQ,1,RESUME2,Resume Treatment to Target Plaque 2,N,CRF,
ABC,EX,ABC-07-010,EXSEQ,1,RESUME3,Resumed Any Treatment to Treated Areas,N,CRF,
ABC,EX,ABC-07-011,EXSEQ,1,MDBASEL,Baseline to Week 2 Visit,0,CRF,
ABC,EX,ABC-07-011,EXSEQ,1,MDWK2,Week 2 to Week 4 Visit,0,CRF,
ABC,EX,ABC-07-011,EXSEQ,1,MDWK4,Week 4 to Week 6 Visit,0,CRF,
ABC,EX,ABC-07-011,EXSEQ,1,MDWK6,Week 6 to Week 8 Visit,0,CRF,
ABC,EX,ABC-07-011,EXSEQ,1,MDWK8,Week 8 to Week 12 Visit,0,CRF,
ABC,EX,ABC-07-011,EXSEQ,1,RESUME1,Resume Treatment to Target Plaque 1,N,CRF,
ABC,EX,ABC-07-011,EXSEQ,1,RESUME2,Resume Treatment to Target Plaque 2,N,CRF,
ABC,EX,ABC-07-011,EXSEQ,1,RESUME3,Resumed Any Treatment to Treated Areas,N,CRF,
ABC,EX,ABC-07-012,EXSEQ,1,MDBASEL,Baseline to Week 2 Visit,0,CRF,
ABC,EX,ABC-07-012,EXSEQ,1,MDWK2,Week 2 to Week 4 Visit,0,CRF,
ABC,EX,ABC-07-012,EXSEQ,1,MDWK4,Week 4 to Week 6 Visit,0,CRF,
ABC,EX,ABC-07-012,EXSEQ,1,MDWK6,Week 6 to Week 8 Visit,0,CRF,
ABC,EX,ABC-07-012,EXSEQ,1,MDWK8,Week 8 to Week 12 Visit,0,CRF,
ABC,EX,ABC-07-012,EXSEQ,1,RESUME1,Resume Treatment to Target Plaque 1,N,CRF,
ABC,EX,ABC-07-012,EXSEQ,1,RESUME2,Resume Treatment to Target Plaque 2,N,CRF,
ABC,EX,ABC-07-012,EXSEQ,1,RESUME3,Resumed Any Treatment to Treated Areas,N,CRF,
ABC,EX,ABC-07-013,EXSEQ,1,MDBASEL,Baseline to Week 2 Visit,0,CRF,
ABC,EX,ABC-07-013,EXSEQ,1,MDWK2,Week 2 to Week 4 Visit,0,CRF,
ABC,EX,ABC-07-013,EXSEQ,1,MDWK4,Week 4 to Week 6 Visit,0,CRF,
ABC,EX,ABC-07-013,EXSEQ,1,MDWK6,Week 6 to Week 8 Visit,0,CRF,
ABC,EX,ABC-07-013,EXSEQ,1,MDWK8,Week 8 to Week 12 Visit,0,CRF,
ABC,EX,ABC-07-013,EXSEQ,1,RESUME1,Resume Treatment to Target Plaque 1,N,CRF,
ABC,EX,ABC-07-013,EXSEQ,1,RESUME2,Resume Treatment to Target Plaque 2,N,CRF,
ABC,EX,ABC-07-013,EXSEQ,1,RESUME3,Resumed Any Treatment to Treated Areas,N,CRF,
ABC,EX,ABC-07-014,EXSEQ,1,MDBASEL,Baseline to Week 2 Visit,0,CRF,
ABC,EX,ABC-07-014,EXSEQ,1,MDWK2,Week 2 to Week 4 Visit,0,CRF,
ABC,EX,ABC-07-014,EXSEQ,1,MDWK4,Week 4 to Week 6 Visit,0,CRF,
ABC,EX,ABC-07-014,EXSEQ,1,MDWK6,Week 6 to Week 8 Visit,0,CRF,
ABC,EX,ABC-07-014,EXSEQ,1,MDWK8,Week 8 to Week 12 Visit,0,CRF,
ABC,EX,ABC-07-014,EXSEQ,1,RESUME1,Resume Treatment to Target Plaque 1,N,CRF,
ABC,EX,ABC-07-014,EXSEQ,1,RESUME2,Resume Treatment to Target Plaque 2,N,CRF,
ABC,EX,ABC-07-014,EXSEQ,1,RESUME3,Resumed Any Treatment to Treated Areas,N,CRF,
ABC,EX,ABC-07-015,EXSEQ,1,MDBASEL,Baseline to Week 2 Visit,0,CRF,
ABC,EX,ABC-07-015,EXSEQ,1,MDWK2,Week 2 to Week 4 Visit,0,CRF,
ABC,EX,ABC-07-015,EXSEQ,1,MDWK4,Week 4 to Week 6 Visit,0,CRF,
ABC,EX,ABC-07-015,EXSEQ,1,MDWK6,Week 6 to Week 8 Visit,0,CRF,
ABC,EX,ABC-07-015,EXSEQ,1,MDWK8,Week 8 to Week 12 Visit,0,CRF,
ABC,EX,ABC-07-015,EXSEQ,1,RESUME1,Resume Treatment to Target Plaque 1,N,CRF,
ABC,EX,ABC-07-015,EXSEQ,1,RESUME2,Resume Treatment to Target Plaque 2,N,CRF,
ABC,EX,ABC-07-015,EXSEQ,1,RESUME3,Resumed Any Treatment to Treated Areas,N,CRF,
ABC,EX,ABC-07-016,EXSEQ,1,MDBASEL,Baseline to Week 2 Visit,0,CRF,
ABC,EX,ABC-07-016,EXSEQ,1,MDWK2,Week 2 to Week 4 Visit,0,CRF,
ABC,EX,ABC-07-016,EXSEQ,1,MDWK4,Week 4 to Week 6 Visit,0,CRF,
ABC,EX,ABC-07-016,EXSEQ,1,MDWK6,Week 6 to Week 8 Visit,0,CRF,
ABC,EX,ABC-07-016,EXSEQ,1,MDWK8,Week 8 to Week 12 Visit,0,CRF,
ABC,EX,ABC-07-016,EXSEQ,1,RESUME1,Resume Treatment to Target Plaque 1,N,CRF,
ABC,EX,ABC-07-016,EXSEQ,1,RESUME2,Resume Treatment to Target Plaque 2,N,CRF,
ABC,EX,ABC-07-016,EXSEQ,1,RESUME3,Resumed Any Treatment to Treated Areas,N,CRF,
ABC,EX,ABC-08-101,EXSEQ,1,MDBASEL,Baseline to Week 2 Visit,0,CRF,
ABC,EX,ABC-08-101,EXSEQ,1,MDWK2,Week 2 to Week 4 Visit,0,CRF,
ABC,EX,ABC-08-101,EXSEQ,1,MDWK4,Week 4 to Week 6 Visit,1,CRF,
ABC,EX,ABC-08-101,EXSEQ,1,MDWK6,Week 6 to Week 8 Visit,0,CRF,
ABC,EX,ABC-08-101,EXSEQ,1,MDWK8,Week 8 to Week 12 Visit,0,CRF,
ABC,EX,ABC-08-101,EXSEQ,1,RESUME1,Resume Treatment to Target Plaque 1,Y,CRF,
ABC,EX,ABC-08-101,EXSEQ,1,RESUME2,Resume Treatment to Target Plaque 2,Y,CRF,
ABC,EX,ABC-08-101,EXSEQ,1,RESUME3,Resumed Any Treatment to Treated Areas,Y,CRF,
ABC,EX,ABC-08-102,EXSEQ,1,MDBASEL,Baseline to Week 2 Visit,0,CRF,
ABC,EX,ABC-08-102,EXSEQ,1,MDWK2,Week 2 to Week 4 Visit,0,CRF,
ABC,EX,ABC-08-102,EXSEQ,1,MDWK4,Week 4 to Week 6 Visit,0,CRF,
ABC,EX,ABC-08-102,EXSEQ,1,MDWK6,Week 6 to Week 8 Visit,0,CRF,
ABC,EX,ABC-08-102,EXSEQ,1,MDWK8,Week 8 to Week 12 Visit,0,CRF,
ABC,EX,ABC-08-102,EXSEQ,1,RESUME1,Resume Treatment to Target Plaque 1,Y,CRF,
ABC,EX,ABC-08-102,EXSEQ,1,RESUME2,Resume Treatment to Target Plaque 2,Y,CRF,
ABC,EX,ABC-08-102,EXSEQ,1,RESUME3,Resumed Any Treatment to Treated Areas,Y,CRF,
ABC,EX,ABC-08-103,EXSEQ,1,MDBASEL,Baseline to Week 2 Visit,0,CRF,
ABC,EX,ABC-08-103,EXSEQ,1,MDWK2,Week 2 to Week 4 Visit,0,CRF,
ABC,EX,ABC-08-103,EXSEQ,1,MDWK4,Week 4 to Week 6 Visit,0,CRF,
ABC,EX,ABC-08-103,EXSEQ,1,MDWK6,Week 6 to Week 8 Visit,0,CRF,
ABC,EX,ABC-08-103,EXSEQ,1,MDWK8,Week 8 to Week 12 Visit,0,CRF,
ABC,EX,ABC-08-104,EXSEQ,1,MDBASEL,Baseline to Week 2 Visit,0,CRF,
ABC,EX,ABC-08-104,EXSEQ,1,MDWK2,Week 2 to Week 4 Visit,0,CRF,
ABC,EX,ABC-08-104,EXSEQ,1,MDWK4,Week 4 to Week 6 Visit,0,CRF,
ABC,EX,ABC-08-104,EXSEQ,1,MDWK6,Week 6 to Week 8 Visit,0,CRF,
ABC,EX,ABC-08-104,EXSEQ,1,MDWK8,Week 8 to Week 12 Visit,0,CRF,
ABC,EX,ABC-08-104,EXSEQ,1,RESUME1,Resume Treatment to Target Plaque 1,N,CRF,
ABC,EX,ABC-08-104,EXSEQ,1,RESUME2,Resume Treatment to Target Plaque 2,N,CRF,
ABC,EX,ABC-08-104,EXSEQ,1,RESUME3,Resumed Any Treatment to Treated Areas,Y,CRF,
ABC,EX,ABC-08-105,EXSEQ,1,MDBASEL,Baseline to Week 2 Visit,0,CRF,
ABC,EX,ABC-08-105,EXSEQ,1,MDWK2,Week 2 to Week 4 Visit,0,CRF,
ABC,EX,ABC-08-105,EXSEQ,1,MDWK4,Week 4 to Week 6 Visit,0,CRF,
ABC,EX,ABC-08-106,EXSEQ,1,MDBASEL,Baseline to Week 2 Visit,0,CRF,
ABC,EX,ABC-08-106,EXSEQ,1,MDWK2,Week 2 to Week 4 Visit,0,CRF,
ABC,EX,ABC-08-106,EXSEQ,1,MDWK4,Week 4 to Week 6 Visit,1,CRF,
ABC,EX,ABC-08-106,EXSEQ,1,MDWK6,Week 6 to Week 8 Visit,0,CRF,
ABC,EX,ABC-08-106,EXSEQ,1,MDWK8,Week 8 to Week 12 Visit,0,CRF,
ABC,EX,ABC-08-106,EXSEQ,1,RESUME1,Resume Treatment to Target Plaque 1,Y,CRF,
ABC,EX,ABC-08-106,EXSEQ,1,RESUME2,Resume Treatment to Target Plaque 2,Y,CRF,
ABC,EX,ABC-08-106,EXSEQ,1,RESUME3,Resumed Any Treatment to Treated Areas,Y,CRF,
ABC,EX,ABC-08-107,EXSEQ,1,MDBASEL,Baseline to Week 2 Visit,0,CRF,
ABC,EX,ABC-08-107,EXSEQ,1,MDWK2,Week 2 to Week 4 Visit,0,CRF,
ABC,EX,ABC-08-107,EXSEQ,1,MDWK4,Week 4 to Week 6 Visit,0,CRF,
ABC,EX,ABC-08-108,EXSEQ,1,MDBASEL,Baseline to Week 2 Visit,0,CRF,
ABC,EX,ABC-08-108,EXSEQ,1,MDWK2,Week 2 to Week 4 Visit,0,CRF,
ABC,EX,ABC-08-108,EXSEQ,1,MDWK4,Week 4 to Week 6 Visit,1,CRF,
ABC,EX,ABC-09-017,EXSEQ,1,MDBASEL,Baseline to Week 2 Visit,0,CRF,
ABC,EX,ABC-09-017,EXSEQ,1,MDPVET,Prior Visit to Early Term,0,CRF,
ABC,EX,ABC-09-017,EXSEQ,1,MDWK2,Week 2 to Week 4 Visit,0,CRF,
ABC,EX,ABC-09-017,EXSEQ,1,MDWK4,Week 4 to Week 6 Visit,0,CRF,
ABC,EX,ABC-09-017,EXSEQ,1,MDWK6,Week 6 to Week 8 Visit,0,CRF,
ABC,EX,ABC-09-017,EXSEQ,1,MDWK8,Week 8 to Week 12 Visit,0,CRF,
ABC,EX,ABC-09-017,EXSEQ,1,RESUME1,Resume Treatment to Target Plaque 1,N,CRF,
ABC,EX,ABC-09-017,EXSEQ,1,RESUME2,Resume Treatment to Target Plaque 2,N,CRF,
ABC,EX,ABC-09-017,EXSEQ,1,RESUME3,Resumed Any Treatment to Treated Areas,N,CRF,
ABC,EX,ABC-09-018,EXSEQ,1,MDBASEL,Baseline to Week 2 Visit,0,CRF,
ABC,EX,ABC-09-018,EXSEQ,1,MDPVET,Prior Visit to Early Term,0,CRF,
ABC,EX,ABC-09-018,EXSEQ,1,MDWK2,Week 2 to Week 4 Visit,0,CRF,
ABC,EX,ABC-09-018,EXSEQ,1,MDWK4,Week 4 to Week 6 Visit,0,CRF,
ABC,EX,ABC-09-018,EXSEQ,1,MDWK6,Week 6 to Week 8 Visit,0,CRF,
ABC,EX,ABC-09-018,EXSEQ,1,MDWK8,Week 8 to Week 12 Visit,0,CRF,
ABC,EX,ABC-09-018,EXSEQ,1,RESUME1,Resume Treatment to Target Plaque 1,N,CRF,
ABC,EX,ABC-09-018,EXSEQ,1,RESUME2,Resume Treatment to Target Plaque 2,N,CRF,
ABC,EX,ABC-09-018,EXSEQ,1,RESUME3,Resumed Any Treatment to Treated Areas,N,CRF,
ABC,EX,ABC-09-019,EXSEQ,1,MDBASEL,Baseline to Week 2 Visit,0,CRF,
ABC,EX,ABC-09-019,EXSEQ,1,MDPVET,Prior Visit to Early Term,0,CRF,
ABC,EX,ABC-09-019,EXSEQ,1,MDWK2,Week 2 to Week 4 Visit,0,CRF,
ABC,EX,ABC-09-019,EXSEQ,1,MDWK4,Week 4 to Week 6 Visit,0,CRF,
ABC,EX,ABC-09-019,EXSEQ,1,MDWK6,Week 6 to Week 8 Visit,0,CRF,
ABC,EX,ABC-09-019,EXSEQ,1,MDWK8,Week 8 to Week 12 Visit,0,CRF,
ABC,EX,ABC-09-019,EXSEQ,1,RESUME1,Resume Treatment to Target Plaque 1,N,CRF,
ABC,EX,ABC-09-019,EXSEQ,1,RESUME2,Resume Treatment to Target Plaque 2,N,CRF,
ABC,EX,ABC-09-019,EXSEQ,1,RESUME3,Resumed Any Treatment to Treated Areas,N,CRF,
ABC,EX,ABC-09-020,EXSEQ,1,MDBASEL,Baseline to Week 2 Visit,0,CRF,
ABC,EX,ABC-09-020,EXSEQ,1,MDPVET,Prior Visit to Early Term,0,CRF,
ABC,EX,ABC-09-020,EXSEQ,1,MDWK2,Week 2 to Week 4 Visit,0,CRF,
ABC,EX,ABC-09-020,EXSEQ,1,MDWK4,Week 4 to Week 6 Visit,0,CRF,
ABC,EX,ABC-09-020,EXSEQ,1,MDWK6,Week 6 to Week 8 Visit,0,CRF,
ABC,EX,ABC-09-020,EXSEQ,1,MDWK8,Week 8 to Week 12 Visit,0,CRF,
ABC,EX,ABC-09-020,EXSEQ,1,RESUME1,Resume Treatment to Target Plaque 1,N,CRF,
ABC,EX,ABC-09-020,EXSEQ,1,RESUME2,Resume Treatment to Target Plaque 2,N,CRF,
ABC,EX,ABC-09-020,EXSEQ,1,RESUME3,Resumed Any Treatment to Treated Areas,N,CRF,
ABC,EX,ABC-09-023,EXSEQ,1,MDBASEL,Baseline to Week 2 Visit,0,CRF,
ABC,EX,ABC-09-023,EXSEQ,1,MDPVET,Prior Visit to Early Term,0,CRF,
ABC,EX,ABC-09-023,EXSEQ,1,MDWK2,Week 2 to Week 4 Visit,0,CRF,
ABC,EX,ABC-09-023,EXSEQ,1,MDWK4,Week 4 to Week 6 Visit,0,CRF,
ABC,EX,ABC-09-023,EXSEQ,1,MDWK6,Week 6 to Week 8 Visit,0,CRF,
ABC,EX,ABC-09-023,EXSEQ,1,MDWK8,Week 8 to Week 12 Visit,0,CRF,
ABC,EX,ABC-09-023,EXSEQ,1,RESUME1,Resume Treatment to Target Plaque 1,N,CRF,
ABC,EX,ABC-09-023,EXSEQ,1,RESUME2,Resume Treatment to Target Plaque 2,N,CRF,
ABC,EX,ABC-09-023,EXSEQ,1,RESUME3,Resumed Any Treatment to Treated Areas,N,CRF,
ABC,EX,ABC-09-024,EXSEQ,1,MDBASEL,Baseline to Week 2 Visit,0,CRF,
ABC,EX,ABC-09-024,EXSEQ,1,MDPVET,Prior Visit to Early Term,0,CRF,
ABC,EX,ABC-09-024,EXSEQ,1,MDWK2,Week 2 to Week 4 Visit,0,CRF,
ABC,EX,ABC-09-024,EXSEQ,1,MDWK4,Week 4 to Week 6 Visit,0,CRF,
ABC,EX,ABC-09-024,EXSEQ,1,MDWK6,Week 6 to Week 8 Visit,0,CRF,
ABC,EX,ABC-09-024,EXSEQ,1,MDWK8,Week 8 to Week 12 Visit,0,CRF,
ABC,EX,ABC-09-024,EXSEQ,1,RESUME1,Resume Treatment to Target Plaque 1,N,CRF,
ABC,EX,ABC-09-024,EXSEQ,1,RESUME2,Resume Treatment to Target Plaque 2,N,CRF,
ABC,EX,ABC-09-024,EXSEQ,1,RESUME3,Resumed Any Treatment to Treated Areas,N,CRF,
ABC,EX,ABC-09-137,EXSEQ,1,MDBASEL,Baseline to Week 2 Visit,0,CRF,
ABC,EX,ABC-09-137,EXSEQ,1,MDPVET,Prior Visit to Early Term,0,CRF,
ABC,EX,ABC-09-137,EXSEQ,1,MDWK2,Week 2 to Week 4 Visit,0,CRF,
ABC,EX,ABC-09-137,EXSEQ,1,MDWK4,Week 4 to Week 6 Visit,0,CRF,
ABC,EX,ABC-09-137,EXSEQ,1,MDWK6,Week 6 to Week 8 Visit,0,CRF,
ABC,EX,ABC-09-137,EXSEQ,1,MDWK8,Week 8 to Week 12 Visit,0,CRF,
ABC,EX,ABC-09-137,EXSEQ,1,RESUME1,Resume Treatment to Target Plaque 1,N,CRF,
ABC,EX,ABC-09-137,EXSEQ,1,RESUME2,Resume Treatment to Target Plaque 2,N,CRF,
ABC,EX,ABC-09-137,EXSEQ,1,RESUME3,Resumed Any Treatment to Treated Areas,N,CRF,
ABC,EX,ABC-09-138,EXSEQ,1,MDBASEL,Baseline to Week 2 Visit,0,CRF,
ABC,EX,ABC-09-138,EXSEQ,1,MDPVET,Prior Visit to Early Term,0,CRF,
ABC,EX,ABC-09-138,EXSEQ,1,MDWK2,Week 2 to Week 4 Visit,0,CRF,
ABC,EX,ABC-09-138,EXSEQ,1,MDWK4,Week 4 to Week 6 Visit,0,CRF,
ABC,EX,ABC-09-138,EXSEQ,1,MDWK6,Week 6 to Week 8 Visit,0,CRF,
ABC,EX,ABC-09-138,EXSEQ,1,MDWK8,Week 8 to Week 12 Visit,0,CRF,
ABC,EX,ABC-09-138,EXSEQ,1,RESUME1,Resume Treatment to Target Plaque 1,N,CRF,
ABC,EX,ABC-09-138,EXSEQ,1,RESUME2,Resume Treatment to Target Plaque 2,N,CRF,
ABC,EX,ABC-09-138,EXSEQ,1,RESUME3,Resumed Any Treatment to Treated Areas,N,CRF,
ABC,EX,ABC-09-139,EXSEQ,1,MDBASEL,Baseline to Week 2 Visit,0,CRF,
ABC,EX,ABC-09-139,EXSEQ,1,MDPVET,Prior Visit to Early Term,0,CRF,
ABC,EX,ABC-09-139,EXSEQ,1,MDWK2,Week 2 to Week 4 Visit,0,CRF,
ABC,EX,ABC-09-139,EXSEQ,1,MDWK4,Week 4 to Week 6 Visit,0,CRF,
ABC,EX,ABC-09-139,EXSEQ,1,MDWK6,Week 6 to Week 8 Visit,0,CRF,
ABC,EX,ABC-09-139,EXSEQ,1,MDWK8,Week 8 to Week 12 Visit,0,CRF,
ABC,EX,ABC-09-139,EXSEQ,1,RESUME1,Resume Treatment to Target Plaque 1,N,CRF,
ABC,EX,ABC-09-139,EXSEQ,1,RESUME2,Resume Treatment to Target Plaque 2,N,CRF,
ABC,EX,ABC-09-139,EXSEQ,1,RESUME3,Resumed Any Treatment to Treated Areas,N,CRF,
ABC,EX,ABC-09-140,EXSEQ,1,MDBASEL,Baseline to Week 2 Visit,0,CRF,
ABC,EX,ABC-09-140,EXSEQ,1,MDPVET,Prior Visit to Early Term,0,CRF,
ABC,EX,ABC-09-140,EXSEQ,1,MDWK2,Week 2 to Week 4 Visit,0,CRF,
ABC,EX,ABC-09-140,EXSEQ,1,MDWK4,Week 4 to Week 6 Visit,0,CRF,
ABC,EX,ABC-09-140,EXSEQ,1,MDWK6,Week 6 to Week 8 Visit,0,CRF,
ABC,EX,ABC-09-140,EXSEQ,1,MDWK8,Week 8 to Week 12 Visit,0,CRF,
ABC,EX,ABC-09-140,EXSEQ,1,RESUME1,Resume Treatment to Target Plaque 1,N,CRF,
ABC,EX,ABC-09-140,EXSEQ,1,RESUME2,Resume Treatment to Target Plaque 2,N,CRF,
ABC,EX,ABC-09-140,EXSEQ,1,RESUME3,Resumed Any Treatment to Treated Areas,N,CRF,
